time,accel_x,accel_y,accel_z
0.000,-49,-447,-696
0.001,-248,-497,-248
0.002,-99,-796,-99
0.003,298,-995,248
0.004,696,-1144,646
0.005,995,-1443,945
0.006,2090,-2090,1393
0.007,2189,-2090,1592
0.008,2737,-2587,2139
0.009,3135,-2836,2587
0.010,3782,-3035,2538
0.011,3831,-3632,2985
0.012,4329,-3732,3184
0.013,4877,-4080,3583
0.014,5374,-4279,3881
0.015,6021,-4777,4528
0.016,6419,-4976,4727
0.017,6817,-5573,4976
0.018,7116,-5822,5573
0.019,7116,-6270,5623
0.020,7116,-6469,6121
0.021,7116,-6270,6170
0.022,7116,-6569,6220
0.023,7116,-6618,6121
0.024,7116,-6419,6071
0.025,7116,-6170,6071
0.026,7116,-6419,5971
0.027,7116,-6220,6121
0.028,7116,-6369,6220
0.029,7116,-6121,6021
0.030,7116,-6369,6121
0.031,7116,-6021,6021
0.032,7116,-6419,5723
0.033,7116,-6170,6220
0.034,7116,-6021,5922
0.035,7116,-6320,5822
0.036,7116,-6170,6220
0.037,7116,-6569,5723
0.038,7116,-6071,5772
0.039,7116,-6021,5723
0.040,7116,-5971,6121
0.041,7116,-6071,5822
0.042,7116,-6320,5872
0.043,7116,-6270,5772
0.044,7116,-5822,5573
0.045,7116,-5922,5822
0.046,7116,-5673,5822
0.047,7116,-6021,5922
0.048,7116,-5573,5673
0.049,7116,-5822,5573
0.050,7116,-5822,5723
0.051,7116,-5872,5723
0.052,7116,-6021,5374
0.053,7116,-6071,5723
0.054,7116,-6121,5822
0.055,7116,-5971,5623
0.056,7116,-6071,5673
0.057,7116,-6170,5523
0.058,7116,-6071,5922
0.059,7116,-6021,5822
0.060,7116,-6021,5573
0.061,7116,-6021,5623
0.062,7116,-6071,5623
0.063,7116,-6121,5723
0.064,7116,-5822,5723
0.065,7116,-5922,5971
0.066,7116,-5772,5673
0.067,7116,-6021,5623
0.068,7116,-5922,5623
0.069,7116,-5772,5872
0.070,7116,-5922,5474
0.071,7116,-5772,5822
0.072,7116,-6021,5673
0.073,7116,-6220,5723
0.074,7116,-5772,5772
0.075,7116,-5822,5772
0.076,7116,-6121,5772
0.077,7116,-6021,5573
0.078,7116,-6021,5474
0.079,7116,-6170,5872
0.080,7116,-5822,6121
0.081,7116,-5872,5573
0.082,7116,-6021,5474
0.083,7116,-5673,5523
0.084,7116,-6170,5723
0.085,7116,-6121,5971
0.086,7116,-5872,5623
0.087,7116,-6369,5772
0.088,7116,-5922,5623
0.089,7116,-6071,5922
0.090,7116,-5922,5374
0.091,7116,-5922,5822
0.092,7116,-5822,5772
0.093,7116,-5922,5922
0.094,7116,-5872,5324
0.095,7116,-5922,5723
0.096,7116,-6021,6071
0.097,7116,-6369,5623
0.098,7116,-6071,5673
0.099,7116,-5822,5822
0.100,7116,-5822,5523
0.101,7116,-5922,5673
0.102,7116,-5772,5623
0.103,7116,-5822,5772
0.104,7116,-6021,5623
0.105,7116,-5623,5573
0.106,7116,-6071,5772
0.107,7116,-5872,5872
0.108,7116,-5523,5723
0.109,7116,-6270,5573
0.110,7116,-5922,5872
0.111,7116,-5573,5822
0.112,7116,-5971,5623
0.113,7116,-5872,5772
0.114,7116,-5971,5872
0.115,7116,-5922,5971
0.116,7116,-5673,6021
0.117,7116,-5922,5573
0.118,7116,-6170,5772
0.119,7116,-5872,5723
0.120,7116,-6021,5623
0.121,7116,-6021,5772
0.122,7116,-5872,5971
0.123,7116,-5872,5673
0.124,7116,-5822,5623
0.125,7116,-6121,5673
0.126,7116,-6121,5772
0.127,7116,-6270,5623
0.128,7116,-5971,5523
0.129,7116,-6021,5723
0.130,7116,-6220,5474
0.131,7116,-5872,5922
0.132,7116,-5723,5723
0.133,7116,-5872,5673
0.134,7116,-5772,5772
0.135,7116,-5922,5872
0.136,7116,-5673,5772
0.137,7116,-6170,5922
0.138,7116,-5673,5822
0.139,7116,-6121,5673
0.140,7116,-5872,5523
0.141,7116,-5971,5424
0.142,7116,-5922,5673
0.143,7116,-5822,6021
0.144,7116,-5822,6021
0.145,7116,-5872,5523
0.146,7116,-5922,5573
0.147,7116,-6021,5623
0.148,7116,-5822,5772
0.149,7116,-5822,5723
0.150,7116,-5971,5922
0.151,7116,-5673,5872
0.152,7116,-5772,5523
0.153,7116,-5922,5673
0.154,7116,-6270,5922
0.155,7116,-6170,5822
0.156,7116,-5971,5623
0.157,7116,-5872,5673
0.158,7116,-5872,5523
0.159,7116,-5822,5922
0.160,7116,-6021,5772
0.161,7116,-5822,5822
0.162,7116,-6170,5772
0.163,7116,-5971,5772
0.164,7116,-6021,5673
0.165,7116,-6021,5922
0.166,7116,-5772,5523
0.167,7116,-6071,6021
0.168,7116,-6021,5673
0.169,7116,-5723,5723
0.170,7116,-5971,5822
0.171,7116,-6021,5673
0.172,7116,-6071,5922
0.173,7116,-5872,5623
0.174,7116,-5922,5872
0.175,7116,-6071,5723
0.176,7116,-6071,5673
0.177,7116,-6170,5872
0.178,7116,-5922,5573
0.179,7116,-6170,5424
0.180,7116,-5971,5772
0.181,7116,-6121,5822
0.182,7116,-6270,5922
0.183,7116,-6220,6021
0.184,7116,-5971,5872
0.185,7116,-5723,5822
0.186,7116,-6121,5872
0.187,7116,-6220,5922
0.188,7116,-6021,5822
0.189,7116,-6021,6021
0.190,7116,-6021,5922
0.191,7116,-5872,5723
0.192,7116,-6170,5673
0.193,7116,-6220,5822
0.194,7116,-6170,5922
0.195,7116,-6369,5822
0.196,7116,-6071,5822
0.197,7116,-6121,5772
0.198,7116,-6170,5623
0.199,7116,-6121,6021
0.200,7116,-5971,5822
0.201,7116,-6071,5573
0.202,7116,-5922,6121
0.203,7116,-6021,5922
0.204,7116,-6320,6021
0.205,7116,-5872,6121
0.206,7116,-6071,5971
0.207,7116,-6270,5772
0.208,7116,-6220,5872
0.209,7116,-6270,6170
0.210,7116,-6170,6021
0.211,7116,-6270,5822
0.212,7116,-5922,5772
0.213,7116,-6469,5971
0.214,7116,-5822,5772
0.215,7116,-5922,5723
0.216,7116,-6270,6021
0.217,7116,-6071,5772
0.218,7116,-6071,6021
0.219,7116,-6121,5772
0.220,7116,-6469,5573
0.221,7116,-5922,5673
0.222,7116,-6021,5971
0.223,7116,-6021,5723
0.224,7116,-6220,6220
0.225,7116,-6220,6021
0.226,7116,-6220,5971
0.227,7116,-6519,5772
0.228,7116,-6369,5772
0.229,7116,-6121,5922
0.230,7116,-6270,5922
0.231,7116,-6220,6220
0.232,7116,-5971,5922
0.233,7116,-5872,5872
0.234,7116,-6270,5922
0.235,7116,-6170,5772
0.236,7116,-5922,5922
0.237,7116,-6121,5872
0.238,7116,-6071,6170
0.239,7116,-6071,6021
0.240,7116,-6320,5971
0.241,7116,-6369,5822
0.242,7116,-6170,5772
0.243,7116,-6121,5772
0.244,7116,-6270,6021
0.245,7116,-6071,5971
0.246,7116,-6419,5872
0.247,7116,-6021,6220
0.248,7116,-6170,5922
0.249,7116,-6369,5922
0.250,7116,-5723,6220
0.251,7116,-5922,6071
0.252,7116,-6071,5971
0.253,7116,-6170,6121
0.254,7116,-6170,6071
0.255,7116,-6320,6270
0.256,7116,-6320,5822
0.257,7116,-6320,6071
0.258,7116,-6320,6021
0.259,7116,-6071,6220
0.260,7116,-6369,5872
0.261,7116,-6121,5971
0.262,7116,-6121,5971
0.263,7116,-6220,5723
0.264,7116,-6320,5971
0.265,7116,-6071,6320
0.266,7116,-6071,5971
0.267,7116,-6170,5922
0.268,7116,-6419,5922
0.269,7116,-6170,6021
0.270,7116,-5922,5872
0.271,7116,-6270,5971
0.272,7116,-6220,6270
0.273,7116,-6519,5971
0.274,7116,-6071,5772
0.275,7116,-6320,6220
0.276,7116,-6320,5971
0.277,7116,-6071,5922
0.278,7116,-6270,6170
0.279,7116,-5922,6071
0.280,7116,-6419,5922
0.281,7116,-6270,5872
0.282,7116,-6170,6170
0.283,7116,-6071,6270
0.284,7116,-6121,5872
0.285,7116,-6170,5772
0.286,7116,-6170,6121
0.287,7116,-6369,5723
0.288,7116,-6419,6170
0.289,7116,-6071,6021
0.290,7116,-6419,6220
0.291,7116,-6071,5922
0.292,7116,-6369,6419
0.293,7116,-6320,5872
0.294,7116,-6071,6270
0.295,7116,-6220,6170
0.296,7116,-6121,6170
0.297,7116,-6419,6270
0.298,7116,-6220,6170
0.299,7116,-6469,6021
0.300,7116,-6170,6021
0.301,7116,-6320,6220
0.302,7116,-6519,6071
0.303,7116,-6220,6071
0.304,7116,-6320,5772
0.305,7116,-6121,6071
0.306,7116,-6170,6270
0.307,7116,-6419,6270
0.308,7116,-6220,6220
0.309,7116,-6320,5971
0.310,7116,-6170,5971
0.311,7116,-6170,6071
0.312,7116,-6320,6121
0.313,7116,-6270,6270
0.314,7116,-6170,5971
0.315,7116,-6270,6021
0.316,7116,-6320,6369
0.317,7116,-6220,6220
0.318,7116,-6170,6021
0.319,7116,-6270,6519
0.320,7116,-6170,6220
0.321,7116,-6369,6419
0.322,7116,-6519,5971
0.323,7116,-6071,6419
0.324,7116,-6170,6021
0.325,7116,-6320,6170
0.326,7116,-6419,6220
0.327,7116,-6071,6270
0.328,7116,-6121,6419
0.329,7116,-6469,6220
0.330,7116,-6469,6369
0.331,7116,-6270,6121
0.332,7116,-6320,5922
0.333,7116,-6320,6270
0.334,7116,-6170,6220
0.335,7116,-6369,6121
0.336,7116,-6220,6220
0.337,7116,-6519,6270
0.338,7116,-6668,6270
0.339,7116,-6270,6220
0.340,7116,-6618,6270
0.341,7116,-6419,6121
0.342,7116,-6768,5922
0.343,7116,-6220,6320
0.344,7116,-6320,6170
0.345,7116,-6270,6419
0.346,7116,-6021,6469
0.347,7116,-6270,6270
0.348,7116,-6320,6419
0.349,7116,-6419,6569
0.350,7116,-6419,6270
0.351,7116,-6320,6320
0.352,7116,-6419,6270
0.353,7116,-6320,6320
0.354,7116,-6369,6270
0.355,7116,-6569,6220
0.356,7116,-6618,6569
0.357,7116,-6569,6270
0.358,7116,-6320,6170
0.359,7116,-6519,6121
0.360,7116,-6469,6220
0.361,7116,-6320,6320
0.362,7116,-6569,6469
0.363,7116,-6519,6419
0.364,7116,-6618,6519
0.365,7116,-6618,5971
0.366,7116,-6369,6220
0.367,7116,-6718,6419
0.368,7116,-6220,6170
0.369,7116,-7116,7116
0.370,7116,-6369,6170
0.371,7116,-6170,6419
0.372,7116,-6618,6220
0.373,7116,-6270,6519
0.374,7116,-6170,6121
0.375,7116,-6618,6419
0.376,7116,-6270,6320
0.377,7116,-6419,6121
0.378,7116,-6519,6170
0.379,7116,-6270,6320
0.380,7116,-6170,6320
0.381,7116,-6569,6369
0.382,7116,-6270,6170
0.383,7116,-6270,6618
0.384,7116,-6519,6369
0.385,7116,-6220,6270
0.386,7116,-6569,6220
0.387,7116,-6320,6270
0.388,7116,-6369,6369
0.389,7116,-6220,6121
0.390,7116,-6369,6668
0.391,7116,-6419,6469
0.392,7116,-6320,6569
0.393,7116,-6170,6220
0.394,7116,-6519,6469
0.395,7116,-6768,6618
0.396,7116,-6369,6419
0.397,7116,-6569,6618
0.398,7116,-6768,6419
0.399,7116,-6668,6569
0.400,7116,-6618,6419
0.401,7116,-6419,6469
0.402,7116,-6569,6419
0.403,7116,-6469,6369
0.404,7116,-6320,6170
0.405,7116,-6369,6419
0.406,7116,-6369,6668
0.407,7116,-6419,6220
0.408,7116,-6369,6419
0.409,7116,-6419,6419
0.410,7116,-6469,6618
0.411,7116,-6320,6569
0.412,7116,-6320,6419
0.413,7116,-6170,6519
0.414,7116,-6569,6768
0.415,7116,-6469,6817
0.416,7116,-6270,6768
0.417,7116,-6618,6369
0.418,7116,-6071,6618
0.419,7116,-6369,6668
0.420,7116,-6270,6519
0.421,7116,-6469,6519
0.422,7116,-6668,6270
0.423,7116,-6369,6419
0.424,7116,-6419,6718
0.425,7116,-6618,6469
0.426,7116,-6320,6519
0.427,7116,-6369,6917
0.428,7116,-6519,6668
0.429,7116,-6220,6519
0.430,7116,-6469,6618
0.431,7116,-6569,6519
0.432,7116,-6220,6519
0.433,7116,-6369,6320
0.434,7116,-6320,6867
0.435,7116,-6469,6519
0.436,7116,-6369,6569
0.437,7116,-6419,6569
0.438,7116,-6270,6817
0.439,7116,-6768,6768
0.440,7116,-6320,6967
0.441,7116,-6369,6668
0.442,7116,-6419,6618
0.443,7116,-6469,6618
0.444,7116,-6170,6519
0.445,7116,-6270,6668
0.446,7116,-6419,6718
0.447,7116,-6419,6668
0.448,7116,-6419,6519
0.449,7116,-6519,6768
0.450,7116,-6718,6668
0.451,7116,-6369,6469
0.452,7116,-6668,6668
0.453,7116,-6270,6718
0.454,7116,-6369,7016
0.455,7116,-6569,6718
0.456,7116,-6618,6768
0.457,7116,-6519,7016
0.458,7116,-6469,6668
0.459,7116,-6270,6917
0.460,7116,-6419,6369
0.461,7116,-6519,6817
0.462,7116,-6668,6519
0.463,7116,-6867,6668
0.464,7116,-6369,6768
0.465,7116,-6369,6768
0.466,7116,-6419,6618
0.467,7116,-6320,6569
0.468,7116,-6569,6618
0.469,7116,-6519,6768
0.470,7116,-6419,6867
0.471,7116,-6519,6718
0.472,7116,-6469,6618
0.473,7116,-6320,6768
0.474,7116,-6369,7016
0.475,7116,-6170,6867
0.476,7116,-6369,6817
0.477,7116,-6320,7016
0.478,7116,-6519,6817
0.479,7116,-6369,6817
0.480,7116,-6569,6718
0.481,7116,-6618,6668
0.482,7116,-6369,6469
0.483,7116,-6270,6867
0.484,7116,-6369,6817
0.485,7116,-6419,6718
0.486,7116,-6369,7016
0.487,7116,-6419,6668
0.488,7116,-6469,6618
0.489,7116,-6469,6817
0.490,7116,-6419,6668
0.491,7116,-6569,6569
0.492,7116,-6618,6917
0.493,7116,-6369,6917
0.494,7116,-6320,6967
0.495,7116,-6569,6768
0.496,7116,-6369,6668
0.497,7116,-6768,7016
0.498,7116,-6519,6867
0.499,7116,-6320,6917
0.500,7116,-6668,6718
0.501,7116,-6469,6917
0.502,7116,-6618,6718
0.503,7116,-6867,7066
0.504,7116,-6469,6867
0.505,7116,-6668,6718
0.506,7116,-6768,6867
0.507,7116,-6519,6917
0.508,7116,-6519,7016
0.509,7116,-6469,6618
0.510,7116,-6618,7016
0.511,7116,-6569,6867
0.512,7116,-6668,7066
0.513,7116,-6469,6817
0.514,7116,-6618,7066
0.515,7116,-6569,7066
0.516,7116,-6469,7116
0.517,7116,-6369,7116
0.518,7116,-6668,6768
0.519,7116,-6569,7066
0.520,7116,-6469,6867
0.521,7116,-6220,6967
0.522,7116,-6519,7116
0.523,7116,-6618,6867
0.524,7116,-6469,6967
0.525,7116,-6519,6917
0.526,7116,-6668,6967
0.527,7116,-6569,7116
0.528,7116,-6867,7116
0.529,7116,-6369,6917
0.530,7116,-6469,6967
0.531,7116,-6369,6967
0.532,7116,-6817,7116
0.533,7116,-6519,6967
0.534,7116,-6768,6917
0.535,7116,-6569,7116
0.536,7116,-6519,6867
0.537,7116,-6519,6967
0.538,7116,-6718,6917
0.539,7116,-6469,6817
0.540,7116,-6569,7066
0.541,7116,-6369,6967
0.542,7116,-6519,7116
0.543,7116,-6320,6917
0.544,7116,-6469,7116
0.545,7116,-6469,7066
0.546,7116,-6469,6917
0.547,7116,-6270,7116
0.548,7116,-6519,7116
0.549,7116,-6718,7066
0.550,7116,-6419,7116
0.551,7116,-6519,7116
0.552,7116,-6469,7116
0.553,7116,-6519,7116
0.554,7116,-6569,7116
0.555,7116,-6419,7116
0.556,7116,-6718,7016
0.557,7116,-6618,7116
0.558,7116,-6320,7116
0.559,7116,-6469,7116
0.560,7116,-6618,7066
0.561,7116,-6369,7116
0.562,7116,-6469,7016
0.563,7116,-6668,7116
0.564,7116,-6220,7116
0.565,7116,-6618,7116
0.566,7116,-6718,7116
0.567,7116,-6668,7066
0.568,7116,-6320,7116
0.569,7116,-6220,7116
0.570,7116,-6320,6967
0.571,7116,-6668,7116
0.572,7116,-6320,7116
0.573,7116,-6618,7116
0.574,7116,-6569,7116
0.575,7116,-6569,7116
0.576,7116,-6220,7116
0.577,7116,-6469,7116
0.578,7116,-6170,7116
0.579,7116,-6170,7116
0.580,7116,-6270,7116
0.581,7116,-6668,7066
0.582,7116,-6519,7116
0.583,7116,-6419,7116
0.584,7116,-6817,7116
0.585,7116,-6419,7116
0.586,7116,-6618,7116
0.587,7116,-6369,7116
0.588,7116,-6519,7116
0.589,7116,-6519,7116
0.590,7116,-6569,7116
0.591,7116,-6270,7116
0.592,7116,-6519,7116
0.593,7116,-6469,7116
0.594,7116,-6718,7116
0.595,7116,-6270,7116
0.596,7116,-6618,7116
0.597,7116,-6569,7116
0.598,7116,-6369,7116
0.599,7116,-6668,7116
0.600,7116,-6618,7116
0.601,7116,-6320,7116
0.602,7116,-6320,7116
0.603,7116,-6369,7116
0.604,7116,-6320,7116
0.605,7116,-6469,7116
0.606,7116,-6320,7116
0.607,7116,-6668,7116
0.608,7116,-6618,7116
0.609,7116,-6369,7116
0.610,7116,-6768,7116
0.611,7116,-6569,7116
0.612,7116,-6469,7116
0.613,7116,-6369,7116
0.614,7116,-6469,7116
0.615,7116,-6569,7116
0.616,7116,-6320,7116
0.617,7116,-6419,7116
0.618,7116,-6419,7116
0.619,7116,-6469,7116
0.620,7116,-6469,7116
0.621,7116,-6369,7116
0.622,7116,-6469,7116
0.623,7116,-6469,7116
0.624,7116,-6618,7116
0.625,7116,-6170,7116
0.626,7116,-6519,7116
0.627,7116,-6419,7116
0.628,7116,-6569,7116
0.629,7116,-6469,7116
0.630,7116,-6569,7116
0.631,7116,-6569,7116
0.632,7116,-6320,7116
0.633,7116,-6519,7116
0.634,7116,-6569,7116
0.635,7116,-6419,7116
0.636,7116,-6419,7116
0.637,7116,-6668,7116
0.638,7116,-6419,7116
0.639,7116,-6668,7116
0.640,7116,-6569,7116
0.641,7116,-6469,7116
0.642,7116,-6569,7116
0.643,7116,-6419,7116
0.644,7116,-6469,7116
0.645,7116,-6569,7116
0.646,7116,-6469,7116
0.647,7116,-6668,7116
0.648,7116,-6121,7116
0.649,7116,-6519,7116
0.650,7116,-6419,7116
0.651,7116,-6270,7116
0.652,7116,-6369,7116
0.653,7116,-6419,7116
0.654,7116,-6369,7116
0.655,7116,-6469,7116
0.656,7116,-6519,7116
0.657,7116,-6369,7116
0.658,7116,-6569,7116
0.659,7116,-6519,7116
0.660,7116,-6121,7116
0.661,7116,-6469,7116
0.662,7116,-6220,7116
0.663,7116,-6419,7116
0.664,7116,-6170,7116
0.665,7116,-6618,7116
0.666,7116,-6519,7116
0.667,7116,-6369,7116
0.668,7116,-6220,7116
0.669,7116,-6369,7116
0.670,7116,-6419,7116
0.671,7116,-6320,7116
0.672,7116,-6320,7116
0.673,7116,-6220,7116
0.674,7116,-6220,7116
0.675,7116,-6220,7116
0.676,7116,-6718,7116
0.677,7116,-6170,7116
0.678,7116,-6569,7116
0.679,7116,-6469,7116
0.680,7116,-6369,7116
0.681,7116,-6768,7116
0.682,7116,-6320,7116
0.683,7116,-6220,7116
0.684,7116,-6469,7116
0.685,7116,-6519,7116
0.686,7116,-6270,7116
0.687,7116,-6270,7116
0.688,7116,-6369,7116
0.689,7116,-6270,7116
0.690,7116,-6569,7116
0.691,7116,-6270,7116
0.692,7116,-6369,7116
0.693,7116,-6369,7116
0.694,7116,-6320,7116
0.695,7116,-6320,7116
0.696,7116,-6519,7116
0.697,7116,-6320,7116
0.698,7116,-6469,7116
0.699,7116,-6170,7116
0.700,7116,-6419,7116
0.701,7116,-6270,7116
0.702,7116,-6220,7116
0.703,7116,-6469,7116
0.704,7116,-6369,7116
0.705,7116,-6369,7116
0.706,7116,-6220,7116
0.707,7116,-6270,7116
0.708,7116,-6270,7116
0.709,7116,-6519,7116
0.710,7116,-6469,7116
0.711,7116,-6270,7116
0.712,7116,-6320,7116
0.713,7116,-6170,7116
0.714,7116,-6320,7116
0.715,7116,-6270,7116
0.716,7116,-6519,7116
0.717,7116,-6369,7116
0.718,7116,-6469,7116
0.719,7116,-6569,7116
0.720,7116,-6369,7116
0.721,7116,-6469,7116
0.722,7116,-6170,7116
0.723,7116,-6320,7116
0.724,7116,-6419,7116
0.725,7116,-6369,7116
0.726,7116,-6419,7116
0.727,7116,-6170,7116
0.728,7116,-6121,7116
0.729,7116,-6071,7116
0.730,7116,-6519,7116
0.731,7116,-6519,7116
0.732,7116,-6170,7116
0.733,7116,-6369,7116
0.734,7116,-6419,7116
0.735,7116,-6121,7116
0.736,7116,-6419,7116
0.737,7116,-6718,7116
0.738,7116,-6618,7116
0.739,7116,-6220,7116
0.740,7116,-6320,7116
0.741,7116,-6170,7116
0.742,7116,-6369,7116
0.743,7116,-6270,7116
0.744,7116,-6320,7116
0.745,7116,-6419,7116
0.746,7116,-6419,7116
0.747,7116,-6270,7116
0.748,7116,-6519,7116
0.749,7116,-6121,7116
0.750,7116,-6569,7116
0.751,7116,-6419,7116
0.752,7116,-6320,7116
0.753,7116,-6419,7116
0.754,7116,-6121,7116
0.755,7116,-6270,7116
0.756,7116,-6369,7116
0.757,7116,-6419,7116
0.758,7116,-5971,7116
0.759,7116,-6519,7116
0.760,7116,-6469,7116
0.761,7116,-6220,7116
0.762,7116,-6270,7116
0.763,7116,-6220,7116
0.764,7116,-6270,7116
0.765,7116,-6469,7116
0.766,7116,-6320,7116
0.767,7116,-6270,7116
0.768,7116,-6369,7116
0.769,7116,-6270,7116
0.770,7116,-6071,7116
0.771,7116,-6170,7116
0.772,7116,-6320,7116
0.773,7116,-6320,7116
0.774,7116,-6270,7116
0.775,7116,-6369,7116
0.776,7116,-6369,7116
0.777,7116,-6220,7116
0.778,7116,-6121,7116
0.779,7116,-5971,7116
0.780,7116,-6270,7116
0.781,7116,-6270,7116
0.782,7116,-6320,7116
0.783,7116,-6071,7116
0.784,7116,-6071,7116
0.785,7116,-6071,7116
0.786,7116,-6021,7116
0.787,7116,-6369,7116
0.788,7116,-6071,7116
0.789,7116,-6419,7116
0.790,7116,-5872,7116
0.791,7116,-6320,7116
0.792,7116,-6270,7116
0.793,7116,-6220,7116
0.794,7116,-5971,7116
0.795,7116,-6469,7116
0.796,7116,-6121,7116
0.797,7116,-6071,7116
0.798,7116,-6220,7116
0.799,7116,-6369,7116
0.800,7116,-6469,7116
0.801,7116,-6320,7116
0.802,7116,-6320,7116
0.803,7116,-6021,7116
0.804,7116,-5971,7116
0.805,7116,-6121,7116
0.806,7116,-6071,7116
0.807,7116,-6270,7116
0.808,7116,-6369,7116
0.809,7116,-6170,7116
0.810,7116,-6170,7116
0.811,7116,-6121,7116
0.812,7116,-6369,7116
0.813,7116,-5971,7116
0.814,7116,-6021,7116
0.815,7116,-6170,7116
0.816,7116,-5922,7116
0.817,7116,-6071,7116
0.818,7116,-6220,7116
0.819,7116,-6270,7116
0.820,7116,-6270,7116
0.821,7116,-6170,7116
0.822,7116,-5772,7116
0.823,7116,-6270,7116
0.824,7116,-6220,7116
0.825,7116,-6121,7116
0.826,7116,-6121,7116
0.827,7116,-6121,7116
0.828,7116,-5922,7116
0.829,7116,-5822,7116
0.830,7116,-6071,7116
0.831,7116,-5872,7116
0.832,7116,-6121,7116
0.833,7116,-6071,7116
0.834,7116,-6220,7116
0.835,7116,-6121,7116
0.836,7116,-6021,7116
0.837,7116,-6270,7116
0.838,7116,-6270,7116
0.839,7116,-6021,7116
0.840,7116,-6320,7116
0.841,7116,-6170,7116
0.842,7116,-5922,7116
0.843,7116,-5872,7116
0.844,7116,-5922,7116
0.845,7116,-5822,7116
0.846,7116,-6220,7116
0.847,7116,-5971,7116
0.848,7116,-5922,7116
0.849,7116,-5971,7116
0.850,7116,-5971,7116
0.851,7116,-6170,7116
0.852,7116,-5971,7116
0.853,7116,-6121,7116
0.854,7116,-6021,7116
0.855,7116,-6121,7116
0.856,7116,-6220,7116
0.857,7116,-5971,7116
0.858,7116,-6170,7116
0.859,7116,-5971,7116
0.860,7116,-6270,7116
0.861,7116,-6220,7116
0.862,7116,-5922,7116
0.863,7116,-6021,7116
0.864,7116,-6121,7116
0.865,7116,-6519,7116
0.866,7116,-5922,7116
0.867,7116,-6071,7116
0.868,7116,-6320,7116
0.869,7116,-6121,7116
0.870,7116,-5822,7116
0.871,7116,-6021,7116
0.872,7116,-6270,7116
0.873,7116,-6170,7116
0.874,7116,-5623,7116
0.875,7116,-6121,7116
0.876,7116,-6121,7116
0.877,7116,-5971,7116
0.878,7116,-6021,7116
0.879,7116,-6071,7116
0.880,7116,-5872,7116
0.881,7116,-6021,7116
0.882,7116,-5922,7116
0.883,7116,-6021,7116
0.884,7116,-6170,7116
0.885,7116,-5971,7116
0.886,7116,-5922,7116
0.887,7116,-6170,7116
0.888,7116,-6220,7116
0.889,7116,-6170,7116
0.890,7116,-6270,7116
0.891,7116,-6170,7116
0.892,7116,-6071,7116
0.893,7116,-5922,7116
0.894,7116,-5872,7116
0.895,7116,-5772,7116
0.896,7116,-6220,7116
0.897,7116,-6121,7116
0.898,7116,-5922,7116
0.899,7116,-6021,7116
0.900,7116,-6170,7116
0.901,7116,-5922,7116
0.902,7116,-6270,7116
0.903,7116,-5922,7116
0.904,7116,-6121,7116
0.905,7116,-5872,7116
0.906,7116,-6220,7116
0.907,7116,-5872,7116
0.908,7116,-5922,7116
0.909,7116,-5822,7116
0.910,7116,-5971,7116
0.911,7116,-6121,7116
0.912,7116,-6170,7116
0.913,7116,-6220,7116
0.914,7116,-6071,7116
0.915,7116,-5971,7116
0.916,7116,-6220,7116
0.917,7116,-5922,7116
0.918,7116,-6220,7116
0.919,7116,-6121,7116
0.920,7116,-5971,7116
0.921,7116,-6121,7116
0.922,7116,-5922,7116
0.923,7116,-6021,7116
0.924,7116,-5922,7116
0.925,7116,-5971,7116
0.926,7116,-6071,7116
0.927,7116,-6220,7116
0.928,7116,-6121,7116
0.929,7116,-6270,7116
0.930,7116,-6220,7116
0.931,7116,-6071,7116
0.932,7116,-6071,7116
0.933,7116,-6170,7116
0.934,7116,-6320,7116
0.935,7116,-6220,7116
0.936,7116,-5971,7116
0.937,7116,-5922,7116
0.938,7116,-5971,7116
0.939,7116,-6021,7116
0.940,7116,-5922,7116
0.941,7116,-5772,7116
0.942,7116,-5723,7116
0.943,7116,-6071,7116
0.944,7116,-5772,7116
0.945,7116,-6021,7116
0.946,7116,-6021,7116
0.947,7116,-6121,7116
0.948,7116,-6071,7116
0.949,7116,-5971,7116
0.950,7116,-6121,7116
0.951,7116,-5872,7116
0.952,7116,-6270,7116
0.953,7116,-5971,7116
0.954,7116,-5822,7116
0.955,7116,-6071,7116
0.956,7116,-6071,7116
0.957,7116,-5822,7116
0.958,7116,-6021,7116
0.959,7116,-6220,7116
0.960,7116,-5971,7116
0.961,7116,-5822,7116
0.962,7116,-5673,7116
0.963,7116,-5772,7116
0.964,7116,-5673,7116
0.965,7116,-5971,7116
0.966,7116,-5474,7116
0.967,7116,-5822,7116
0.968,7116,-5772,7116
0.969,7116,-5772,7116
0.970,7116,-6170,7116
0.971,7116,-5673,7116
0.972,7116,-5872,7116
0.973,7116,-5772,7116
0.974,7116,-5971,7116
0.975,7116,-5971,7116
0.976,7116,-5374,7116
0.977,7116,-6021,7116
0.978,7116,-5723,7116
0.979,7116,-6021,7116
0.980,7116,-5872,7116
0.981,7116,-5822,7116
0.982,7116,-5971,7116
0.983,7116,-6021,7116
0.984,7116,-5971,7116
0.985,7116,-5922,7116
0.986,7116,-6270,7116
0.987,7116,-5971,7116
0.988,7116,-5971,7116
0.989,7116,-5971,7116
0.990,7116,-5971,7116
0.991,7116,-6071,7116
0.992,7116,-6121,7116
0.993,7116,-5922,7116
0.994,7116,-5971,7116
0.995,7116,-6021,7116
0.996,7116,-5872,7116
0.997,7116,-6121,7116
0.998,7116,-5772,7116
0.999,7116,-5872,7116
1.000,7116,-6170,7116
1.001,7116,-6220,7116
1.002,7116,-5922,7116
1.003,7116,-5922,7116
1.004,7116,-5822,7116
1.005,7116,-6220,7116
1.006,7116,-5971,7116
1.007,7116,-5922,7116
1.008,7116,-5971,7116
1.009,7116,-5723,7116
1.010,7116,-5872,7116
1.011,7116,-5922,7116
1.012,7116,-5922,7116
1.013,7116,-5772,7116
1.014,7116,-5922,7116
1.015,7116,-5922,7116
1.016,7116,-6121,7116
1.017,7116,-5772,7116
1.018,7116,-5872,7116
1.019,7116,-5922,7116
1.020,7116,-5772,7116
1.021,7116,-6071,7116
1.022,7116,-5822,7116
1.023,7116,-5772,7116
1.024,7116,-5772,7116
1.025,7116,-6021,7116
1.026,7116,-5772,7116
1.027,7116,-6021,7116
1.028,7116,-5474,7116
1.029,7116,-5822,7116
1.030,7116,-5971,7116
1.031,7116,-5971,7116
1.032,7116,-5822,7116
1.033,7116,-5971,7116
1.034,7116,-6121,7116
1.035,7116,-5523,7116
1.036,7116,-6021,7116
1.037,7116,-5872,7116
1.038,7116,-5673,7116
1.039,7116,-5772,7116
1.040,7116,-5772,7116
1.041,7116,-5772,7116
1.042,7116,-5872,7116
1.043,7116,-5772,7116
1.044,7116,-5822,7116
1.045,7116,-5922,7116
1.046,7116,-5822,7116
1.047,7116,-5723,7116
1.048,7116,-5723,7116
1.049,7116,-5922,7116
1.050,7116,-5822,7116
1.051,7116,-6071,7116
1.052,7116,-5673,7116
1.053,7116,-5673,7116
1.054,7116,-5772,7116
1.055,7116,-5872,7116
1.056,7116,-5922,7116
1.057,7116,-5822,7116
1.058,7116,-5772,7116
1.059,7116,-5772,7116
1.060,7116,-6071,7116
1.061,7116,-5573,7116
1.062,7116,-5922,7116
1.063,7116,-5723,7116
1.064,7116,-5623,7116
1.065,7116,-5723,7116
1.066,7116,-5573,7116
1.067,7116,-5922,7116
1.068,7116,-5922,7116
1.069,7116,-5822,7116
1.070,7116,-5922,7116
1.071,7116,-5723,7116
1.072,7116,-5673,7116
1.073,7116,-6071,7116
1.074,7116,-5822,7116
1.075,7116,-5723,7116
1.076,7116,-5523,7116
1.077,7116,-5922,7116
1.078,7116,-5772,7116
1.079,7116,-6021,7116
1.080,7116,-5772,7116
1.081,7116,-5822,7116
1.082,7116,-5623,7116
1.083,7116,-6021,7116
1.084,7116,-5872,7116
1.085,7116,-5573,7116
1.086,7116,-5872,7116
1.087,7116,-5922,7116
1.088,7116,-5573,7116
1.089,7116,-5922,7116
1.090,7116,-5573,7116
1.091,7116,-5872,7116
1.092,7116,-5872,7116
1.093,7116,-5623,7116
1.094,7116,-5772,7116
1.095,7116,-5872,7116
1.096,7116,-5623,7116
1.097,7116,-5822,7116
1.098,7116,-5772,7116
1.099,7116,-5623,7116
1.100,7116,-5872,7116
1.101,7116,-5623,7116
1.102,7116,-6220,7116
1.103,7116,-5723,7116
1.104,7116,-5922,7116
1.105,7116,-5723,7116
1.106,7116,-6021,7116
1.107,7116,-5822,7116
1.108,7116,-5822,7116
1.109,7116,-5374,7116
1.110,7116,-5623,7116
1.111,7116,-5723,7116
1.112,7116,-5723,7116
1.113,7116,-5723,7116
1.114,7116,-5523,7116
1.115,7116,-5872,7116
1.116,7116,-5772,7116
1.117,7116,-5872,7116
1.118,7116,-5772,7116
1.119,7116,-5723,7116
1.120,7116,-5723,7116
1.121,7116,-5723,7116
1.122,7116,-5971,7116
1.123,7116,-5822,7116
1.124,7116,-5772,7116
1.125,7116,-5623,7116
1.126,7116,-5772,7116
1.127,7116,-5673,7116
1.128,7116,-5772,7116
1.129,7116,-5623,7116
1.130,7116,-5922,7116
1.131,7116,-5822,7116
1.132,7116,-5822,7116
1.133,7116,-5822,7116
1.134,7116,-5623,7116
1.135,7116,-5424,7116
1.136,7116,-6220,7116
1.137,7116,-6021,7116
1.138,7116,-5872,7116
1.139,7116,-5922,7116
1.140,7116,-5772,7116
1.141,7116,-5673,7116
1.142,7116,-5922,7116
1.143,7116,-5971,7116
1.144,7116,-5523,7116
1.145,7116,-6071,7116
1.146,7116,-6121,7116
1.147,7116,-5872,7116
1.148,7116,-5922,7116
1.149,7116,-6071,7116
1.150,7116,-5872,7116
1.151,7116,-5971,7116
1.152,7116,-5772,7116
1.153,7116,-6021,7116
1.154,7116,-5922,7116
1.155,7116,-5723,7116
1.156,7116,-5971,7116
1.157,7116,-5673,7116
1.158,7116,-5872,7116
1.159,7116,-5573,7116
1.160,7116,-5772,7116
1.161,7116,-5623,7116
1.162,7116,-5822,7116
1.163,7116,-5723,7116
1.164,7116,-6220,7116
1.165,7116,-5922,7116
1.166,7116,-5922,7116
1.167,7116,-5922,7116
1.168,7116,-5723,7116
1.169,7116,-5872,7116
1.170,7116,-5971,7116
1.171,7116,-5822,7116
1.172,7116,-5971,7116
1.173,7116,-5573,7116
1.174,7116,-5822,7116
1.175,7116,-5971,7116
1.176,7116,-5673,7116
1.177,7116,-5474,7116
1.178,7116,-5573,7116
1.179,7116,-5772,7116
1.180,7116,-5872,7116
1.181,7116,-5872,7116
1.182,7116,-5772,7116
1.183,7116,-6021,7116
1.184,7116,-5723,7116
1.185,7116,-6071,7116
1.186,7116,-6021,7116
1.187,7116,-6021,7116
1.188,7116,-6071,7116
1.189,7116,-5673,7116
1.190,7116,-6021,7116
1.191,7116,-5822,7116
1.192,7116,-5872,7116
1.193,7116,-6071,7116
1.194,7116,-6021,7116
1.195,7116,-5623,7116
1.196,7116,-5772,7116
1.197,7116,-6021,7116
1.198,7116,-5474,7116
1.199,7116,-5971,7116
1.200,7116,-6121,7116
1.201,7116,-6021,7116
1.202,7116,-6071,7116
1.203,7116,-5772,7116
1.204,7116,-5872,7116
1.205,7116,-5822,7116
1.206,7116,-5971,7116
1.207,7116,-5971,7116
1.208,7116,-5822,7116
1.209,7116,-6220,7116
1.210,7116,-6071,7116
1.211,7116,-5872,7116
1.212,7116,-5922,7116
1.213,7116,-6121,7116
1.214,7116,-5922,7116
1.215,7116,-5822,7116
1.216,7116,-5673,7116
1.217,7116,-5922,7116
1.218,7116,-5971,7116
1.219,7116,-5673,7116
1.220,7116,-6021,7116
1.221,7116,-5772,7116
1.222,7116,-6021,7116
1.223,7116,-6021,7116
1.224,7116,-5772,7116
1.225,7116,-6021,7116
1.226,7116,-6021,7116
1.227,7116,-5474,7116
1.228,7116,-5922,7116
1.229,7116,-6021,7116
1.230,7116,-5772,7116
1.231,7116,-5922,7116
1.232,7116,-5971,7116
1.233,7116,-5922,7116
1.234,7116,-6170,7116
1.235,7116,-5872,7116
1.236,7116,-5673,7116
1.237,7116,-5872,7116
1.238,7116,-5971,7116
1.239,7116,-5922,7116
1.240,7116,-6071,7116
1.241,7116,-6021,7116
1.242,7116,-6071,7116
1.243,7116,-6121,7116
1.244,7116,-5971,7116
1.245,7116,-5922,7116
1.246,7116,-5922,7116
1.247,7116,-5872,7116
1.248,7116,-5822,7116
1.249,7116,-5772,7116
1.250,7116,-5822,7116
1.251,7116,-5922,7116
1.252,7116,-5971,7116
1.253,7116,-5971,7116
1.254,7116,-6021,7116
1.255,7116,-5772,7116
1.256,7116,-6121,7116
1.257,7116,-5723,7116
1.258,7116,-6121,7116
1.259,7116,-5971,7116
1.260,7116,-6021,7116
1.261,7116,-5922,7116
1.262,7116,-5922,7116
1.263,7116,-6021,7116
1.264,7116,-5822,7116
1.265,7116,-5673,7116
1.266,7116,-6170,7116
1.267,7116,-5872,7116
1.268,7116,-5822,7116
1.269,7116,-6121,7116
1.270,7116,-6170,7116
1.271,7116,-6170,7116
1.272,7116,-5971,7116
1.273,7116,-6071,7116
1.274,7116,-6419,7116
1.275,7116,-5872,7116
1.276,7116,-6170,7116
1.277,7116,-6121,7116
1.278,7116,-6170,7116
1.279,7116,-6071,7116
1.280,7116,-5922,7116
1.281,7116,-6021,7116
1.282,7116,-6419,7116
1.283,7116,-5971,7116
1.284,7116,-6220,7116
1.285,7116,-6320,7116
1.286,7116,-6071,7116
1.287,7116,-6220,7116
1.288,7116,-6121,7116
1.289,7116,-6419,7116
1.290,7116,-5971,7116
1.291,7116,-6021,7116
1.292,7116,-6170,7116
1.293,7116,-6270,7116
1.294,7116,-6071,7116
1.295,7116,-6369,7116
1.296,7116,-6021,7116
1.297,7116,-6270,7116
1.298,7116,-6170,7116
1.299,7116,-6071,7116
1.300,7116,-5772,7116
1.301,7116,-5971,7116
1.302,7116,-6320,7116
1.303,7116,-5971,7116
1.304,7116,-5971,7116
1.305,7116,-6320,7116
1.306,7116,-6121,7116
1.307,7116,-6270,7116
1.308,7116,-6121,7116
1.309,7116,-6519,7116
1.310,7116,-6320,7116
1.311,7116,-6220,7116
1.312,7116,-6121,7116
1.313,7116,-5922,7116
1.314,7116,-6369,7116
1.315,7116,-6170,7116
1.316,7116,-6121,7116
1.317,7116,-6021,7116
1.318,7116,-6419,7116
1.319,7116,-5971,7116
1.320,7116,-5872,7116
1.321,7116,-5971,7116
1.322,7116,-6320,7116
1.323,7116,-6369,7116
1.324,7116,-6369,7116
1.325,7116,-6121,7116
1.326,7116,-6170,7116
1.327,7116,-6320,7116
1.328,7116,-6270,7116
1.329,7116,-6071,7116
1.330,7116,-6270,7116
1.331,7116,-6220,7116
1.332,7116,-6121,7116
1.333,7116,-6021,7116
1.334,7116,-6469,7116
1.335,7116,-6419,7116
1.336,7116,-6419,7116
1.337,7116,-6320,7116
1.338,7116,-6220,7116
1.339,7116,-6469,7116
1.340,7116,-5872,7116
1.341,7116,-6220,7116
1.342,7116,-6320,7116
1.343,7116,-6369,7116
1.344,7116,-6170,7116
1.345,7116,-6369,7116
1.346,7116,-6170,7116
1.347,7116,-6320,7116
1.348,7116,-6569,7116
1.349,7116,-6369,7116
1.350,7116,-6419,7116
1.351,7116,-6569,7116
1.352,7116,-6220,7116
1.353,7116,-6618,7116
1.354,7116,-6419,7116
1.355,7116,-6220,7116
1.356,7116,-6569,7116
1.357,7116,-6618,7116
1.358,7116,-6220,7116
1.359,7116,-6369,7116
1.360,7116,-6220,7116
1.361,7116,-6121,7116
1.362,7116,-6320,7116
1.363,7116,-6170,7116
1.364,7116,-6469,7116
1.365,7116,-6121,7116
1.366,7116,-6270,7116
1.367,7116,-6419,7116
1.368,7116,-6270,7116
1.369,7116,-6369,7116
1.370,7116,-6320,7116
1.371,7116,-6618,7116
1.372,7116,-6519,7116
1.373,7116,-6071,7116
1.374,7116,-6369,7116
1.375,7116,-6419,7116
1.376,7116,-6668,7116
1.377,7116,-6369,7116
1.378,7116,-6320,7116
1.379,7116,-6270,7116
1.380,7116,-6569,7116
1.381,7116,-6519,7116
1.382,7116,-6320,7116
1.383,7116,-6270,7116
1.384,7116,-6071,7116
1.385,7116,-6419,7116
1.386,7116,-6320,7116
1.387,7116,-6320,7116
1.388,7116,-6320,7116
1.389,7116,-6519,7116
1.390,7116,-6419,7116
1.391,7116,-6618,7116
1.392,7116,-6519,7116
1.393,7116,-6519,7116
1.394,7116,-6419,7116
1.395,7116,-6569,7116
1.396,7116,-6369,7116
1.397,7116,-6469,7116
1.398,7116,-6569,7116
1.399,7116,-6320,7116
1.400,7116,-6469,7116
1.401,7116,-6369,7116
1.402,7116,-6618,7116
1.403,7116,-6270,7116
1.404,7116,-6469,7116
1.405,7116,-6519,7116
1.406,7116,-6369,7116
1.407,7116,-6369,7116
1.408,7116,-6320,7116
1.409,7116,-6519,7116
1.410,7116,-6369,7116
1.411,7116,-6768,7116
1.412,7116,-6569,7116
1.413,7116,-6618,7116
1.414,7116,-6668,7116
1.415,7116,-6519,7116
1.416,7116,-6519,7116
1.417,7116,-6718,7116
1.418,7116,-6718,7116
1.419,7116,-6569,7116
1.420,7116,-6519,7116
1.421,7116,-6817,7116
1.422,7116,-6817,7116
1.423,7116,-6419,7116
1.424,7116,-6768,7116
1.425,7116,-6668,7116
1.426,7116,-6419,7116
1.427,7116,-6369,7116
1.428,7116,-6469,7116
1.429,7116,-6469,7116
1.430,7116,-6668,7116
1.431,7116,-6668,7116
1.432,7116,-7016,7116
1.433,7116,-6668,7116
1.434,7116,-6469,7116
1.435,7116,-6519,7116
1.436,7116,-6419,7116
1.437,7116,-6668,7116
1.438,7116,-6419,7116
1.439,7116,-6718,7116
1.440,7116,-6469,7116
1.441,7116,-6768,7116
1.442,7116,-6618,7116
1.443,7116,-6569,7116
1.444,7116,-6569,7116
1.445,7116,-6718,7116
1.446,7116,-6618,7116
1.447,7116,-6519,7116
1.448,7116,-6817,7116
1.449,7116,-6569,7116
1.450,7116,-6967,7116
1.451,7116,-6569,7116
1.452,7116,-6967,7116
1.453,7116,-6668,7116
1.454,7116,-6668,7116
1.455,7116,-6718,7116
1.456,7116,-6668,7116
1.457,7116,-6469,7116
1.458,7116,-6618,7116
1.459,7116,-6618,7116
1.460,7116,-6668,7116
1.461,7116,-6519,7116
1.462,7116,-6668,7116
1.463,7116,-6768,7116
1.464,7116,-6817,7116
1.465,7116,-6867,7116
1.466,7116,-6817,7116
1.467,7116,-6668,7116
1.468,7116,-6718,7116
1.469,7116,-6519,7116
1.470,7116,-6768,7116
1.471,7116,-6519,7116
1.472,7116,-6618,7116
1.473,7116,-6618,7116
1.474,7116,-6768,7116
1.475,7116,-6768,7116
1.476,7116,-6768,7116
1.477,7116,-6718,7116
1.478,7116,-6768,7116
1.479,7116,-6768,7116
1.480,7116,-6668,7116
1.481,7116,-6668,7116
1.482,7116,-6668,7116
1.483,7116,-6618,7116
1.484,7116,-6817,7116
1.485,7116,-6917,7116
1.486,7116,-6668,7116
1.487,7116,-6469,7116
1.488,7116,-6718,7116
1.489,7116,-6768,7116
1.490,7116,-6718,7116
1.491,7116,-6917,7116
1.492,7116,-6917,7116
1.493,7116,-6817,7116
1.494,7116,-6817,7116
1.495,7116,-6718,7116
1.496,7116,-6519,7116
1.497,7116,-7016,7116
1.498,7116,-6320,7116
1.499,7116,-6768,7116
1.500,7116,-6768,7116
1.501,7116,-6419,7116
1.502,7116,-6768,7116
1.503,7116,-6917,7116
1.504,7116,-6867,7116
1.505,7116,-6867,7116
1.506,7116,-6618,7116
1.507,7116,-6519,7116
1.508,7116,-6718,7116
1.509,7116,-6817,7116
1.510,7116,-6867,7116
1.511,7116,-7116,7116
1.512,7116,-6817,7116
1.513,7116,-6817,7116
1.514,7116,-6469,7116
1.515,7116,-6618,7116
1.516,7116,-6718,7116
1.517,7116,-6270,7116
1.518,7116,-6569,7116
1.519,7116,-6668,7116
1.520,7116,-6718,7116
1.521,7116,-6768,7116
1.522,7116,-6768,7116
1.523,7116,-6817,7116
1.524,7116,-6668,7116
1.525,7116,-6768,7116
1.526,7116,-6768,7116
1.527,7116,-6867,7116
1.528,7116,-6569,7116
1.529,7116,-6618,7116
1.530,7116,-7016,7116
1.531,7116,-6519,7116
1.532,7116,-6718,7116
1.533,7116,-6718,7116
1.534,7116,-7116,7116
1.535,7116,-6718,7116
1.536,7116,-6917,7116
1.537,7116,-6768,7116
1.538,7116,-6718,7116
1.539,7116,-6817,7116
1.540,7116,-6817,7116
1.541,7116,-6768,7116
1.542,7116,-6917,7116
1.543,7116,-6519,7116
1.544,7116,-6618,7116
1.545,7116,-6569,7116
1.546,7116,-6917,7116
1.547,7116,-6817,7116
1.548,7116,-6817,7116
1.549,7116,-6718,7116
1.550,7116,-6768,7116
1.551,7116,-6817,7116
1.552,7116,-6768,7116
1.553,7116,-6668,7116
1.554,7116,-6569,7116
1.555,7116,-6718,7116
1.556,7116,-6419,7116
1.557,7116,-6967,7116
1.558,7116,-6718,7116
1.559,7116,-6469,7116
1.560,7116,-6519,7116
1.561,7116,-6817,7116
1.562,7116,-6569,7116
1.563,7116,-6618,7116
1.564,7116,-6817,7116
1.565,7116,-6618,7116
1.566,7116,-6469,7116
1.567,7116,-6569,7116
1.568,7116,-6768,7116
1.569,7116,-6469,7116
1.570,7116,-6867,7116
1.571,7116,-6817,7116
1.572,7116,-6917,7116
1.573,7116,-6469,7116
1.574,7116,-6569,7116
1.575,7116,-6867,7116
1.576,7116,-6768,7116
1.577,7116,-6618,7116
1.578,7116,-6768,7116
1.579,7116,-6618,7116
1.580,7116,-6867,7116
1.581,7116,-6519,7116
1.582,7116,-6618,7116
1.583,7116,-6817,7116
1.584,7116,-6817,7116
1.585,7116,-6867,7116
1.586,7116,-6668,7116
1.587,7116,-6867,7116
1.588,7116,-6469,7116
1.589,7116,-6867,7116
1.590,7116,-6569,7116
1.591,7116,-6967,7116
1.592,7116,-6867,7116
1.593,7116,-6817,7116
1.594,7116,-6519,7116
1.595,7116,-6419,7116
1.596,7116,-6917,7116
1.597,7116,-6519,7116
1.598,7116,-6519,7116
1.599,7116,-6817,7116
1.600,7116,-6618,7116
1.601,7116,-6668,7116
1.602,7116,-6519,7116
1.603,7116,-6768,7116
1.604,7116,-6768,7116
1.605,7116,-6618,7116
1.606,7116,-6668,7116
1.607,7116,-6519,7116
1.608,7116,-6668,7116
1.609,7116,-6668,7116
1.610,7116,-6469,7116
1.611,7116,-6618,7116
1.612,7116,-6519,7116
1.613,7116,-6519,7116
1.614,7116,-6718,7116
1.615,7116,-6817,7116
1.616,7116,-6419,7116
1.617,7116,-6668,7116
1.618,7116,-6867,7116
1.619,7116,-6668,7116
1.620,7116,-6569,7116
1.621,7116,-6469,7116
1.622,7116,-6469,7116
1.623,7116,-6668,7116
1.624,7116,-6569,7116
1.625,7116,-6569,7116
1.626,7116,-6768,7116
1.627,7116,-6618,7116
1.628,7116,-6519,7116
1.629,7116,-6469,7116
1.630,7116,-6618,7116
1.631,7116,-6668,7116
1.632,7116,-6768,7116
1.633,7116,-6519,7116
1.634,7116,-6320,7116
1.635,7116,-6569,7116
1.636,7116,-6469,7116
1.637,7116,-6817,7116
1.638,7116,-6668,7116
1.639,7116,-6668,7116
1.640,7116,-6618,7116
1.641,7116,-6469,7116
1.642,7116,-6519,7116
1.643,7116,-6817,7116
1.644,7116,-6569,7116
1.645,7116,-6618,7116
1.646,7116,-6469,7116
1.647,7116,-6519,7116
1.648,7116,-6320,7116
1.649,7116,-6369,7116
1.650,7116,-6469,7116
1.651,7116,-6618,7116
1.652,7116,-6419,7116
1.653,7116,-6519,7116
1.654,7116,-6569,7116
1.655,7116,-6270,7116
1.656,7116,-6519,7116
1.657,7116,-6618,7116
1.658,7116,-6519,7116
1.659,7116,-6569,7116
1.660,7116,-6369,7116
1.661,7116,-6469,7116
1.662,7116,-6519,7116
1.663,7116,-6469,7116
1.664,7116,-6618,7116
1.665,7116,-6569,7116
1.666,7116,-6618,7116
1.667,7116,-6220,7116
1.668,7116,-6519,7116
1.669,7116,-6320,7116
1.670,7116,-6618,7116
1.671,7116,-6021,7116
1.672,7116,-6469,7116
1.673,7116,-6220,7116
1.674,7116,-6220,7116
1.675,7116,-6618,7116
1.676,7116,-6469,7116
1.677,7116,-6320,7116
1.678,7116,-6369,7116
1.679,7116,-6519,7116
1.680,7116,-6369,7116
1.681,7116,-6270,7116
1.682,7116,-6569,7116
1.683,7116,-6270,7116
1.684,7116,-6569,7116
1.685,7116,-6419,7116
1.686,7116,-6419,7116
1.687,7116,-6220,7116
1.688,7116,-6668,7116
1.689,7116,-6519,7116
1.690,7116,-6021,7116
1.691,7116,-6320,7116
1.692,7116,-6320,7116
1.693,7116,-6469,7116
1.694,7116,-6469,7116
1.695,7116,-6021,7116
1.696,7116,-6369,7116
1.697,7116,-6369,7116
1.698,7116,-6220,7116
1.699,7116,-6668,7116
1.700,7116,-6220,7116
1.701,7116,-6270,7116
1.702,7116,-6121,7116
1.703,7116,-6270,7116
1.704,7116,-6320,7116
1.705,7116,-6519,7116
1.706,7116,-6369,7116
1.707,7116,-6071,7116
1.708,7116,-6121,7116
1.709,7116,-6021,7116
1.710,7116,-5872,7116
1.711,7116,-6519,7116
1.712,7116,-6021,7116
1.713,7116,-6170,7116
1.714,7116,-6121,7116
1.715,7116,-6220,7116
1.716,7116,-6519,7116
1.717,7116,-6121,7116
1.718,7116,-6369,7116
1.719,7116,-6170,7116
1.720,7116,-6320,7116
1.721,7116,-6419,7116
1.722,7116,-6170,7116
1.723,7116,-6170,7116
1.724,7116,-6320,7116
1.725,7116,-6320,7116
1.726,7116,-5971,7116
1.727,7116,-6270,7116
1.728,7116,-6369,7116
1.729,7116,-5872,7116
1.730,7116,-6320,7116
1.731,7116,-6220,7116
1.732,7116,-6170,7116
1.733,7116,-6170,7116
1.734,7116,-6071,7116
1.735,7116,-6121,7116
1.736,7116,-6469,7116
1.737,7116,-6170,7116
1.738,7116,-6270,7116
1.739,7116,-6320,7116
1.740,7116,-6469,7116
1.741,7116,-6320,7116
1.742,7116,-6270,7116
1.743,7116,-5822,7116
1.744,7116,-6021,7116
1.745,7116,-6021,7116
1.746,7116,-6419,7116
1.747,7116,-6369,7116
1.748,7116,-5872,7116
1.749,7116,-6369,7116
1.750,7116,-6220,7116
1.751,7116,-5971,7116
1.752,7116,-5971,7116
1.753,7116,-6021,7116
1.754,7116,-6469,7116
1.755,7116,-6220,7116
1.756,7116,-6071,7116
1.757,7116,-6071,7116
1.758,7116,-6071,7116
1.759,7116,-6071,7116
1.760,7116,-6170,7116
1.761,7116,-5822,7116
1.762,7116,-6121,7116
1.763,7116,-6071,7116
1.764,7116,-6170,7116
1.765,7116,-5772,7116
1.766,7116,-6170,7116
1.767,7116,-6320,7116
1.768,7116,-6270,7116
1.769,7116,-6320,7116
1.770,7116,-5822,7116
1.771,7116,-6220,7116
1.772,7116,-6121,7116
1.773,7116,-5971,7116
1.774,7116,-5971,7116
1.775,7116,-6519,7116
1.776,7116,-6220,7116
1.777,7116,-6121,7116
1.778,7116,-6170,7116
1.779,7116,-5872,7116
1.780,7116,-6071,7116
1.781,7116,-6270,7116
1.782,7116,-6021,7116
1.783,7116,-6320,7116
1.784,7116,-6021,7116
1.785,7116,-6071,7116
1.786,7116,-5971,7116
1.787,7116,-6121,7116
1.788,7116,-6270,7116
1.789,7116,-6021,7116
1.790,7116,-5971,7116
1.791,7116,-6021,7116
1.792,7116,-5872,7116
1.793,7116,-6121,7116
1.794,7116,-6270,7116
1.795,7116,-5822,7116
1.796,7116,-6320,7116
1.797,7116,-5971,7116
1.798,7116,-6021,7116
1.799,7116,-6021,7116
1.800,7116,-6121,7116
1.801,7116,-6320,7116
1.802,7116,-5922,7116
1.803,7116,-5822,7116
1.804,7116,-6021,7116
1.805,7116,-5922,7116
1.806,7116,-6320,7116
1.807,7116,-5971,7116
1.808,7116,-5723,7116
1.809,7116,-5772,7116
1.810,7116,-5822,7116
1.811,7116,-6021,7116
1.812,7116,-5822,7116
1.813,7116,-5971,7116
1.814,7116,-5872,7116
1.815,7116,-5872,7116
1.816,7116,-5872,7116
1.817,7116,-6021,7116
1.818,7116,-5673,7116
1.819,7116,-5723,7116
1.820,7116,-5772,7116
1.821,7116,-6021,7116
1.822,7116,-5971,7116
1.823,7116,-5723,7116
1.824,7116,-5872,7116
1.825,7116,-5922,7116
1.826,7116,-6220,7116
1.827,7116,-5822,7116
1.828,7116,-5723,7116
1.829,7116,-6121,7116
1.830,7116,-5623,7116
1.831,7116,-5822,7116
1.832,7116,-6071,7116
1.833,7116,-5872,7116
1.834,7116,-5673,7116
1.835,7116,-6071,7116
1.836,7116,-5822,7116
1.837,7116,-5723,7116
1.838,7116,-5723,7116
1.839,7116,-5971,7116
1.840,7116,-5971,7116
1.841,7116,-5922,7116
1.842,7116,-5872,7116
1.843,7116,-5872,7116
1.844,7116,-5723,7116
1.845,7116,-6121,7116
1.846,7116,-5623,7116
1.847,7116,-5772,7116
1.848,7116,-6170,7116
1.849,7116,-5772,7116
1.850,7116,-5723,7116
1.851,7116,-5872,7116
1.852,7116,-5723,7116
1.853,7116,-5723,7116
1.854,7116,-5822,7116
1.855,7116,-5971,7116
1.856,7116,-5922,7116
1.857,7116,-5922,7116
1.858,7116,-5922,7116
1.859,7116,-5922,7116
1.860,7116,-5872,7116
1.861,7116,-6071,7116
1.862,7116,-5723,7116
1.863,7116,-5922,7116
1.864,7116,-6021,7116
1.865,7116,-5971,7116
1.866,7116,-5872,7116
1.867,7116,-6071,7116
1.868,7116,-5723,7116
1.869,7116,-5623,7116
1.870,7116,-5673,7116
1.871,7116,-5922,7116
1.872,7116,-5723,7116
1.873,7116,-5822,7116
1.874,7116,-5922,7116
1.875,7116,-5872,7116
1.876,7116,-5971,7116
1.877,7116,-6021,7116
1.878,7116,-5822,7116
1.879,7116,-6121,7116
1.880,7116,-5872,7116
1.881,7116,-6021,7116
1.882,7116,-5772,7116
1.883,7116,-5723,7116
1.884,7116,-5573,7116
1.885,7116,-5673,7116
1.886,7116,-5523,7116
1.887,7116,-6121,7116
1.888,7116,-6021,7116
1.889,7116,-5673,7116
1.890,7116,-5573,7116
1.891,7116,-5822,7116
1.892,7116,-5573,7116
1.893,7116,-5772,7116
1.894,7116,-5723,7116
1.895,7116,-5872,7116
1.896,7116,-5573,7116
1.897,7116,-5922,7116
1.898,7116,-5424,7116
1.899,7116,-5673,7116
1.900,7116,-5872,7116
1.901,7116,-5971,7116
1.902,7116,-5922,7116
1.903,7116,-5822,7116
1.904,7116,-5872,7116
1.905,7116,-5822,7116
1.906,7116,-5971,7116
1.907,7116,-5673,7116
1.908,7116,-6170,7116
1.909,7116,-5673,7116
1.910,7116,-6121,7116
1.911,7116,-5723,7116
1.912,7116,-5772,7116
1.913,7116,-5723,7116
1.914,7116,-5971,7116
1.915,7116,-5822,7116
1.916,7116,-5822,7116
1.917,7116,-5872,7116
1.918,7116,-5872,7116
1.919,7116,-5822,7116
1.920,7116,-5872,7116
1.921,7116,-5872,7116
1.922,7116,-5772,7116
1.923,7116,-5623,7116
1.924,7116,-5723,7116
1.925,7116,-5822,7116
1.926,7116,-5723,7116
1.927,7116,-5772,7116
1.928,7116,-5822,7116
1.929,7116,-5573,7116
1.930,7116,-5971,7116
1.931,7116,-5723,7116
1.932,7116,-5772,7116
1.933,7116,-5772,7116
1.934,7116,-5822,7116
1.935,7116,-5673,7116
1.936,7116,-5723,7116
1.937,7116,-5822,7116
1.938,7116,-5723,7116
1.939,7116,-5723,7116
1.940,7116,-5623,7116
1.941,7116,-5474,7116
1.942,7116,-5872,7116
1.943,7116,-5872,7116
1.944,7116,-5872,7116
1.945,7116,-5723,7116
1.946,7116,-5772,7116
1.947,7116,-5573,7116
1.948,7116,-5922,7116
1.949,7116,-5822,7116
1.950,7116,-5971,7116
1.951,7116,-5922,7116
1.952,7116,-5772,7116
1.953,7116,-5971,7116
1.954,7116,-6021,7116
1.955,7116,-6170,7116
1.956,7116,-6021,7116
1.957,7116,-5872,7116
1.958,7116,-5822,7116
1.959,7116,-5822,7116
1.960,7116,-5971,7116
1.961,7116,-5872,7116
1.962,7116,-5822,7116
1.963,7116,-5772,7116
1.964,7116,-5573,7116
1.965,7116,-5971,7116
1.966,7116,-6071,7116
1.967,7116,-5723,7116
1.968,7116,-5822,7116
1.969,7116,-5673,7116
1.970,7116,-5922,7116
1.971,7116,-5723,7116
1.972,7116,-5573,7116
1.973,7116,-6071,7116
1.974,7116,-6021,7116
1.975,7116,-5922,7116
1.976,7116,-6021,7116
1.977,7116,-5573,7116
1.978,7116,-5772,7116
1.979,7116,-5772,7116
1.980,7116,-5822,7116
1.981,7116,-5872,7116
1.982,7116,-5872,7116
1.983,7116,-5872,7116
1.984,7116,-5872,7116
1.985,7116,-6170,7116
1.986,7116,-6121,7116
1.987,7116,-6170,7116
1.988,7116,-6021,7116
1.989,7116,-5971,7116
1.990,7116,-5922,7116
1.991,7116,-5772,7116
1.992,7116,-6071,7116
1.993,7116,-5922,7116
1.994,7116,-5971,7116
1.995,7116,-6021,7116
1.996,7116,-6021,7116
1.997,7116,-5872,7116
1.998,7116,-5772,7116
1.999,7116,-5772,7116
2.000,7116,-5971,7116
2.001,7116,-6071,7116
2.002,7116,-5822,7116
2.003,7116,-5922,7116
2.004,7116,-5922,7116
2.005,7116,-6021,7116
2.006,7116,-6071,7116
2.007,7116,-5723,7116
2.008,7116,-5772,7116
2.009,7116,-5922,7116
2.010,7116,-5872,7116
2.011,7116,-5872,7116
2.012,7116,-5723,7116
2.013,7116,-5723,7116
2.014,7116,-6021,7116
2.015,7116,-6071,7116
2.016,7116,-6121,7116
2.017,7116,-5922,7116
2.018,7116,-5922,7116
2.019,7116,-6071,7116
2.020,7116,-5822,7116
2.021,7116,-6021,7116
2.022,7116,-5971,7116
2.023,7116,-6021,7116
2.024,7116,-5922,7116
2.025,7116,-6021,7116
2.026,7116,-6170,7116
2.027,7116,-5971,7116
2.028,7116,-5772,7116
2.029,7116,-6071,7116
2.030,7116,-6121,7116
2.031,7116,-5772,7116
2.032,7116,-6270,7116
2.033,7116,-5971,7116
2.034,7116,-5772,7116
2.035,7116,-6071,7116
2.036,7116,-6021,7116
2.037,7116,-6021,7116
2.038,7116,-5673,7116
2.039,7116,-6071,7116
2.040,7116,-5872,7116
2.041,7116,-6369,7116
2.042,7116,-5772,7116
2.043,7116,-6071,7116
2.044,7116,-5872,7116
2.045,7116,-6170,7116
2.046,7116,-6170,7116
2.047,7116,-6121,7116
2.048,7116,-5971,7116
2.049,7116,-6021,7116
2.050,7116,-5971,7116
2.051,7116,-5872,7116
2.052,7116,-6220,7116
2.053,7116,-6121,7116
2.054,7116,-6021,7116
2.055,7116,-5922,7116
2.056,7116,-6121,7116
2.057,7116,-5971,7116
2.058,7116,-5772,7116
2.059,7116,-6071,7116
2.060,7116,-6021,7116
2.061,7116,-5872,7116
2.062,7116,-6170,7116
2.063,7116,-6121,7116
2.064,7116,-5922,7116
2.065,7116,-5872,7116
2.066,7116,-6021,7116
2.067,7116,-6170,7116
2.068,7116,-5971,7116
2.069,7116,-6071,7116
2.070,7116,-6270,7116
2.071,7116,-5573,7116
2.072,7116,-6021,7116
2.073,7116,-6220,7116
2.074,7116,-5822,7116
2.075,7116,-6170,7116
2.076,7116,-6320,7116
2.077,7116,-5772,7116
2.078,7116,-5922,7116
2.079,7116,-5922,7116
2.080,7116,-5922,7116
2.081,7116,-6021,7116
2.082,7116,-5922,7116
2.083,7116,-5971,7116
2.084,7116,-5971,7116
2.085,7116,-5872,7116
2.086,7116,-5872,7116
2.087,7116,-6071,7116
2.088,7116,-5922,7116
2.089,7116,-6021,7116
2.090,7116,-6021,7116
2.091,7116,-6170,7116
2.092,7116,-6021,7116
2.093,7116,-6021,7116
2.094,7116,-5623,7116
2.095,7116,-6021,7116
2.096,7116,-5772,7116
2.097,7116,-5822,7116
2.098,7116,-6071,7116
2.099,7116,-6170,7116
2.100,7116,-5922,7116
2.101,7116,-6170,7116
2.102,7116,-5872,7116
2.103,7116,-5922,7116
2.104,7116,-6071,7116
2.105,7116,-6021,7116
2.106,7116,-5723,7116
2.107,7116,-6021,7116
2.108,7116,-5673,7116
2.109,7116,-6121,7116
2.110,7116,-5872,7116
2.111,7116,-5971,7116
2.112,7116,-5922,7116
2.113,7116,-6121,7116
2.114,7116,-6021,7116
2.115,7116,-6021,7116
2.116,7116,-6170,7116
2.117,7116,-5872,7116
2.118,7116,-6021,7116
2.119,7116,-5772,7116
2.120,7116,-5822,7116
2.121,7116,-6021,7116
2.122,7116,-6170,7116
2.123,7116,-5822,7116
2.124,7116,-5922,7116
2.125,7116,-6121,7116
2.126,7116,-6220,7116
2.127,7116,-6021,7116
2.128,7116,-6071,7116
2.129,7116,-6121,7116
2.130,7116,-5971,7116
2.131,7116,-6170,7116
2.132,7116,-5971,7116
2.133,7116,-5723,7116
2.134,7116,-5872,7116
2.135,7116,-6121,7116
2.136,7116,-5523,7116
2.137,7116,-5723,7116
2.138,7116,-5971,7116
2.139,7116,-6121,7116
2.140,7116,-6270,7116
2.141,7116,-5872,7116
2.142,7116,-5872,7116
2.143,7116,-6071,7116
2.144,7116,-5872,7116
2.145,7116,-5922,7116
2.146,7116,-6121,7116
2.147,7116,-6071,7116
2.148,7116,-6220,7116
2.149,7116,-5822,7116
2.150,7116,-5922,7116
2.151,7116,-6021,7116
2.152,7116,-5822,7116
2.153,7116,-5772,7116
2.154,7116,-5922,7116
2.155,7116,-5922,7116
2.156,7116,-5971,7116
2.157,7116,-5971,7116
2.158,7116,-5922,7116
2.159,7116,-6071,7116
2.160,7116,-5772,7116
2.161,7116,-6170,7116
2.162,7116,-5723,7116
2.163,7116,-5673,7116
2.164,7116,-5723,7116
2.165,7116,-5872,7116
2.166,7116,-5623,7116
2.167,7116,-5772,7116
2.168,7116,-5922,7116
2.169,7116,-5872,7116
2.170,7116,-6071,7116
2.171,7116,-6021,7116
2.172,7116,-5822,7116
2.173,7116,-5822,7116
2.174,7116,-5723,7116
2.175,7116,-5822,7116
2.176,7116,-6121,7116
2.177,7116,-5922,7116
2.178,7116,-5723,7116
2.179,7116,-5822,7116
2.180,7116,-5723,7116
2.181,7116,-5723,7116
2.182,7116,-5573,7116
2.183,7116,-5822,7116
2.184,7116,-5723,7116
2.185,7116,-5772,7116
2.186,7116,-5922,7116
2.187,7116,-5723,7116
2.188,7116,-5922,7116
2.189,7116,-5772,7116
2.190,7116,-5772,7116
2.191,7116,-5922,7116
2.192,7116,-5723,7116
2.193,7116,-5872,7116
2.194,7116,-5822,7116
2.195,7116,-5723,7116
2.196,7116,-5723,7116
2.197,7116,-5723,7116
2.198,7116,-5772,7116
2.199,7116,-6021,7116
2.200,7116,-5822,7116
2.201,7116,-5723,7116
2.202,7116,-5971,7116
2.203,7116,-5623,7116
2.204,7116,-6071,7116
2.205,7116,-5723,7116
2.206,7116,-5623,7116
2.207,7116,-5971,7116
2.208,7116,-5723,7116
2.209,7116,-5971,7116
2.210,7116,-5623,7116
2.211,7116,-5723,7116
2.212,7116,-5324,7116
2.213,7116,-5623,7116
2.214,7116,-5573,7116
2.215,7116,-5424,7116
2.216,7116,-5673,7116
2.217,7116,-5673,7116
2.218,7116,-5723,7116
2.219,7116,-5673,7116
2.220,7116,-5673,7116
2.221,7116,-5573,7116
2.222,7116,-5673,7116
2.223,7116,-5573,7116
2.224,7116,-5573,7116
2.225,7116,-5723,7116
2.226,7116,-5424,7116
2.227,7116,-5872,7116
2.228,7116,-5822,7116
2.229,7116,-5275,7116
2.230,7116,-5573,7116
2.231,7116,-5723,7116
2.232,7116,-5673,7116
2.233,7116,-5523,7116
2.234,7116,-5673,7116
2.235,7116,-5673,7116
2.236,7116,-5623,7116
2.237,7116,-5523,7116
2.238,7116,-5673,7116
2.239,7116,-5723,7116
2.240,7116,-5623,7116
2.241,7116,-5623,7116
2.242,7116,-5922,7116
2.243,7116,-5872,7116
2.244,7116,-5573,7116
2.245,7116,-5523,7116
2.246,7116,-5723,7116
2.247,7116,-5872,7116
2.248,7116,-5523,7116
2.249,7116,-5723,7116
2.250,7116,-5723,7116
2.251,7116,-5474,7116
2.252,7116,-5474,7116
2.253,7116,-5573,7116
2.254,7116,-5772,7116
2.255,7116,-5772,7116
2.256,7116,-5673,7116
2.257,7116,-5523,7116
2.258,7116,-5623,7116
2.259,7116,-5474,7116
2.260,7116,-5673,7116
2.261,7116,-5573,7116
2.262,7116,-5822,7116
2.263,7116,-5474,7116
2.264,7116,-5623,7116
2.265,7116,-5424,7116
2.266,7116,-5225,7116
2.267,7116,-5573,7116
2.268,7116,-5474,7116
2.269,7116,-5474,7116
2.270,7116,-5523,7116
2.271,7116,-5275,7116
2.272,7116,-5523,7116
2.273,7116,-5374,7116
2.274,7116,-5374,7116
2.275,7116,-5225,7116
2.276,7116,-5424,7116
2.277,7116,-5324,7116
2.278,7116,-5723,7116
2.279,7116,-5275,7116
2.280,7116,-5474,7116
2.281,7116,-5424,7116
2.282,7116,-5424,7116
2.283,7116,-5474,7116
2.284,7116,-5723,7116
2.285,7116,-5573,7116
2.286,7116,-5623,7116
2.287,7116,-5474,7116
2.288,7116,-5275,7116
2.289,7116,-5573,7116
2.290,7116,-5723,7116
2.291,7116,-5424,7116
2.292,7116,-5275,7116
2.293,7116,-5474,7116
2.294,7116,-5474,7116
2.295,7116,-5474,7116
2.296,7116,-5474,7116
2.297,7116,-5623,7116
2.298,7116,-5474,7116
2.299,7116,-5523,7116
2.300,7116,-5125,7116
2.301,7116,-5623,7116
2.302,7116,-5275,7116
2.303,7116,-5125,7116
2.304,7116,-5573,7116
2.305,7116,-5175,7116
2.306,7116,-5424,7116
2.307,7116,-5275,7116
2.308,7116,-5673,7116
2.309,7116,-5324,7116
2.310,7116,-5424,7116
2.311,7116,-5523,7116
2.312,7116,-5076,7116
2.313,7116,-5374,7116
2.314,7116,-5623,7116
2.315,7116,-5324,7116
2.316,7116,-5573,7116
2.317,7116,-5523,7116
2.318,7116,-5474,7116
2.319,7116,-5374,7116
2.320,7116,-5424,7116
2.321,7116,-5076,7116
2.322,7116,-5474,7116
2.323,7116,-5275,7116
2.324,7116,-5523,7116
2.325,7116,-5374,7116
2.326,7116,-5275,7116
2.327,7116,-5175,7116
2.328,7116,-5424,7116
2.329,7116,-5623,7116
2.330,7116,-5225,7116
2.331,7116,-5125,7116
2.332,7116,-5523,7116
2.333,7116,-5076,7116
2.334,7116,-5573,7116
2.335,7116,-5474,7116
2.336,7116,-5275,7116
2.337,7116,-5424,7116
2.338,7116,-5275,7116
2.339,7116,-5026,7116
2.340,7116,-5225,7116
2.341,7116,-5374,7116
2.342,7116,-4976,7116
2.343,7116,-5374,7116
2.344,7116,-5374,7116
2.345,7116,-5225,7116
2.346,7116,-5225,7116
2.347,7116,-5275,7116
2.348,7116,-5225,7116
2.349,7116,-5275,7116
2.350,7116,-5324,7116
2.351,7116,-5474,7116
2.352,7116,-5324,7116
2.353,7116,-5175,7116
2.354,7116,-5424,7116
2.355,7116,-5723,7116
2.356,7116,-5225,7116
2.357,7116,-5275,7116
2.358,7116,-5324,7116
2.359,7116,-5125,7116
2.360,7116,-5523,7116
2.361,7116,-5175,7116
2.362,7116,-5374,7116
2.363,7116,-5275,7116
2.364,7116,-5175,7116
2.365,7116,-5523,7116
2.366,7116,-5374,7116
2.367,7116,-5424,7116
2.368,7116,-5225,7116
2.369,7116,-5324,7116
2.370,7116,-5523,7116
2.371,7116,-5175,7116
2.372,7116,-5424,7116
2.373,7116,-5175,7116
2.374,7116,-5523,7116
2.375,7116,-5324,7116
2.376,7116,-5374,7116
2.377,7116,-5275,7116
2.378,7116,-5175,7116
2.379,7116,-5523,7116
2.380,7116,-5374,7116
2.381,7116,-5125,7116
2.382,7116,-5225,7116
2.383,7116,-5175,7116
2.384,7116,-5324,7116
2.385,7116,-5125,7116
2.386,7116,-5474,7116
2.387,7116,-5225,7116
2.388,7116,-5324,7116
2.389,7116,-5275,7116
2.390,7116,-4976,7116
2.391,7116,-5175,7116
2.392,7116,-5225,7116
2.393,7116,-5324,7116
2.394,7116,-5125,7116
2.395,7116,-5275,7116
2.396,7116,-5225,7116
2.397,7116,-5175,7116
2.398,7116,-5424,7116
2.399,7116,-4877,7116
2.400,7116,-4877,7116
2.401,7116,-5523,7116
2.402,7116,-5424,7116
2.403,7116,-5474,7116
2.404,7116,-5374,7116
2.405,7116,-5324,7116
2.406,7116,-5324,7116
2.407,7116,-5374,7116
2.408,7116,-5175,7116
2.409,7116,-5225,7116
2.410,7116,-5125,7116
2.411,7116,-5424,7116
2.412,7116,-5474,7116
2.413,7116,-5275,7116
2.414,7116,-5424,7116
2.415,7116,-5623,7116
2.416,7116,-5026,7116
2.417,7116,-5125,7116
2.418,7116,-5324,7116
2.419,7116,-5275,7116
2.420,7116,-5175,7116
2.421,7116,-5573,7116
2.422,7116,-5175,7116
2.423,7116,-5324,7116
2.424,7116,-5374,7116
2.425,7116,-5275,7116
2.426,7116,-5076,7116
2.427,7116,-5324,7116
2.428,7116,-5324,7116
2.429,7116,-5324,7116
2.430,7116,-5225,7116
2.431,7116,-5175,7116
2.432,7116,-5523,7116
2.433,7116,-5225,7116
2.434,7116,-5324,7116
2.435,7116,-5125,7116
2.436,7116,-5175,7116
2.437,7116,-5076,7116
2.438,7116,-5523,7116
2.439,7116,-5374,7116
2.440,7116,-5424,7116
2.441,7116,-5324,7116
2.442,7116,-5474,7116
2.443,7116,-5523,7116
2.444,7116,-5374,7116
2.445,7116,-5275,7116
2.446,7116,-5573,7116
2.447,7116,-5772,7116
2.448,7116,-5175,7116
2.449,7116,-5275,7116
2.450,7116,-5225,7116
2.451,7116,-5623,7116
2.452,7116,-5175,7116
2.453,7116,-5175,7116
2.454,7116,-5225,7116
2.455,7116,-5474,7116
2.456,7116,-5374,7116
2.457,7116,-5324,7116
2.458,7116,-5474,7116
2.459,7116,-5175,7116
2.460,7116,-5573,7116
2.461,7116,-5474,7116
2.462,7116,-5424,7116
2.463,7116,-5673,7116
2.464,7116,-5424,7116
2.465,7116,-5772,7116
2.466,7116,-5623,7116
2.467,7116,-5573,7116
2.468,7116,-5623,7116
2.469,7116,-5474,7116
2.470,7116,-5374,7116
2.471,7116,-5673,7116
2.472,7116,-5275,7116
2.473,7116,-5573,7116
2.474,7116,-5225,7116
2.475,7116,-5424,7116
2.476,7116,-5026,7116
2.477,7116,-5324,7116
2.478,7116,-5424,7116
2.479,7116,-5275,7116
2.480,7116,-5523,7116
2.481,7116,-5523,7116
2.482,7116,-5474,7116
2.483,7116,-5474,7116
2.484,7116,-5723,7116
2.485,7116,-5225,7116
2.486,7116,-5523,7116
2.487,7116,-5523,7116
2.488,7116,-5324,7116
2.489,7116,-5175,7116
2.490,7116,-5523,7116
2.491,7116,-5474,7116
2.492,7116,-5424,7116
2.493,7116,-5424,7116
2.494,7116,-5673,7116
2.495,7116,-5673,7116
2.496,7116,-5623,7116
2.497,7116,-5324,7116
2.498,7116,-5523,7116
2.499,7116,-5225,7116
2.500,7116,-5324,7116
2.501,7116,-5523,7116
2.502,7116,-5324,7116
2.503,7116,-5573,7116
2.504,7116,-5324,7116
2.505,7116,-5275,7116
2.506,7116,-5374,7116
2.507,7116,-5474,7116
2.508,7116,-5673,7116
2.509,7116,-5324,7116
2.510,7116,-5673,7116
2.511,7116,-5424,7116
2.512,7116,-5474,7116
2.513,7116,-5474,7116
2.514,7116,-5275,7116
2.515,7116,-5573,7116
2.516,7116,-5822,7116
2.517,7116,-5723,7116
2.518,7116,-5523,7116
2.519,7116,-5175,7116
2.520,7116,-5772,7116
2.521,7116,-5324,7116
2.522,7116,-5374,7116
2.523,7116,-5225,7116
2.524,7116,-5623,7116
2.525,7116,-5026,7116
2.526,7116,-5673,7116
2.527,7116,-5573,7116
2.528,7116,-5623,7116
2.529,7116,-5275,7116
2.530,7116,-5523,7116
2.531,7116,-5922,7116
2.532,7116,-5523,7116
2.533,7116,-5424,7116
2.534,7116,-5424,7116
2.535,7116,-5523,7116
2.536,7116,-5474,7116
2.537,7116,-5275,7116
2.538,7116,-5772,7116
2.539,7116,-5424,7116
2.540,7116,-5523,7116
2.541,7116,-5324,7116
2.542,7116,-5573,7116
2.543,7116,-5374,7116
2.544,7116,-5374,7116
2.545,7116,-5474,7116
2.546,7116,-5573,7116
2.547,7116,-5523,7116
2.548,7116,-5424,7116
2.549,7116,-5474,7116
2.550,7116,-5324,7116
2.551,7116,-5623,7116
2.552,7116,-5424,7116
2.553,7116,-5673,7116
2.554,7116,-5474,7116
2.555,7116,-5723,7116
2.556,7116,-5324,7116
2.557,7116,-5424,7116
2.558,7116,-5573,7116
2.559,7116,-5474,7116
2.560,7116,-5474,7116
2.561,7116,-5424,7116
2.562,7116,-5523,7116
2.563,7116,-5573,7116
2.564,7116,-5772,7116
2.565,7116,-5474,7116
2.566,7116,-5723,7116
2.567,7116,-5573,7116
2.568,7116,-5424,7116
2.569,7116,-5623,7116
2.570,7116,-5523,7116
2.571,7116,-5424,7116
2.572,7116,-5474,7116
2.573,7116,-5424,7116
2.574,7116,-5772,7116
2.575,7116,-5772,7116
2.576,7116,-5474,7116
2.577,7116,-5523,7116
2.578,7116,-5623,7116
2.579,7116,-5523,7116
2.580,7116,-5523,7116
2.581,7116,-5673,7116
2.582,7116,-5573,7116
2.583,7116,-5474,7116
2.584,7116,-5424,7116
2.585,7116,-5872,7116
2.586,7116,-5723,7116
2.587,7116,-5573,7116
2.588,7116,-5374,7116
2.589,7116,-5275,7116
2.590,7116,-5573,7116
2.591,7116,-5623,7116
2.592,7116,-5424,7116
2.593,7116,-5474,7116
2.594,7116,-5673,7116
2.595,7116,-5872,7116
2.596,7116,-5772,7116
2.597,7116,-5573,7116
2.598,7116,-5474,7116
2.599,7116,-5772,7116
2.600,7116,-5424,7116
2.601,7116,-5523,7116
2.602,7116,-5723,7116
2.603,7116,-5573,7116
2.604,7116,-5573,7116
2.605,7116,-5225,7116
2.606,7116,-5922,7116
2.607,7116,-5623,7116
2.608,7116,-5673,7116
2.609,7116,-5523,7116
2.610,7116,-5772,7116
2.611,7116,-5474,7116
2.612,7116,-5922,7116
2.613,7116,-5474,7116
2.614,7116,-5523,7116
2.615,7116,-5523,7116
2.616,7116,-5424,7116
2.617,7116,-5673,7116
2.618,7116,-5673,7116
2.619,7116,-5573,7116
2.620,7116,-5723,7116
2.621,7116,-5424,7116
2.622,7116,-5673,7116
2.623,7116,-5523,7116
2.624,7116,-5673,7116
2.625,7116,-5424,7116
2.626,7116,-5573,7116
2.627,7116,-5523,7116
2.628,7116,-5523,7116
2.629,7116,-5673,7116
2.630,7116,-5673,7116
2.631,7116,-5573,7116
2.632,7116,-5673,7116
2.633,7116,-5474,7116
2.634,7116,-5474,7116
2.635,7116,-5573,7116
2.636,7116,-5573,7116
2.637,7116,-5523,7116
2.638,7116,-5424,7116
2.639,7116,-5573,7116
2.640,7116,-5573,7116
2.641,7116,-5573,7116
2.642,7116,-5673,7116
2.643,7116,-5673,7116
2.644,7116,-5175,7116
2.645,7116,-5474,7116
2.646,7116,-5573,7116
2.647,7116,-5523,7116
2.648,7116,-5573,7116
2.649,7116,-5225,7116
2.650,7116,-5424,7116
2.651,7116,-5623,7116
2.652,7116,-5523,7116
2.653,7116,-5275,7116
2.654,7116,-5474,7116
2.655,7116,-5324,7116
2.656,7116,-5324,7116
2.657,7116,-4976,7116
2.658,7116,-5225,7116
2.659,7116,-5225,7116
2.660,7116,-5175,7116
2.661,7116,-4877,7116
2.662,7016,-4976,7116
2.663,6967,-4976,7116
2.664,6867,-4827,7116
2.665,6768,-4976,7116
2.666,6718,-4926,7116
2.667,7116,-4727,7116
2.668,6320,-4926,7116
2.669,6270,-4727,7116
2.670,6270,-4578,7116
2.671,6071,-4578,7116
2.672,6220,-4230,7116
2.673,6270,-4329,7116
2.674,5822,-4329,7116
2.675,5772,-4230,7116
2.676,5723,-4080,7116
2.677,5822,-3981,7116
2.678,5772,-4329,7116
2.679,5474,-4130,6817
2.680,5324,-3831,6817
2.681,5424,-4031,7016
2.682,5275,-3881,6618
2.683,5076,-3931,6519
2.684,4976,-3384,6668
2.685,5125,-3831,6618
2.686,4777,-3931,6569
2.687,4628,-3782,6071
2.688,4976,-3433,5971
2.689,4528,-3284,6071
2.690,4677,-3284,5822
2.691,-7116,7116,-7116
2.692,4528,-3184,5573
2.693,4279,-3583,5474
2.694,4230,-3085,5324
2.695,4130,-3433,5374
2.696,4080,-3384,5125
2.697,3931,-2637,5275
2.698,3931,-3234,4976
2.699,3981,-3284,4877
2.700,3632,-3085,4926
2.701,3682,-2886,4827
2.702,3632,-2836,4677
2.703,3433,-2737,4478
2.704,3284,-2637,4727
2.705,3433,-2687,4230
2.706,3234,-2388,4230
2.707,3085,-2637,4130
2.708,2886,-2637,4031
2.709,2936,-2538,4130
2.710,2985,-2338,3831
2.711,2538,-2786,3583
2.712,2687,-2488,3831
2.713,2637,-2388,3433
2.714,2289,-2289,3433
2.715,2488,-2438,3284
2.716,2388,-2090,2985
2.717,1940,-1891,2985
2.718,2239,-1990,2936
2.719,2139,-1990,2836
2.720,2139,-1841,2687
2.721,1642,-1891,2637
2.722,1692,-1692,2388
2.723,1692,-1990,2189
2.724,1343,-1542,2289
2.725,1244,-1393,2289
2.726,1244,-1393,2139
2.727,1492,-1443,1990
2.728,1045,-1443,1841
2.729,1094,-1244,1692
2.730,1144,-1194,1443
2.731,696,-1443,1443
2.732,846,-1094,1393
2.733,646,-1144,1393
2.734,846,-1094,1244
2.735,398,-1144,1194
2.736,547,-1045,895
2.737,497,-995,746
2.738,646,-945,796
2.739,447,-1194,746
2.740,497,-945,846
2.741,447,-995,547
2.742,248,-696,597
2.743,49,-895,796
2.744,348,-746,398
2.745,149,-995,447
2.746,-149,-1144,348
2.747,199,-1094,398
2.748,0,-597,199
2.749,199,-945,348
2.750,0,-796,398
2.751,-298,-547,547
2.752,-248,-895,348
2.753,0,-547,248
2.754,-149,-945,298
2.755,0,-597,248
2.756,-49,-646,99
2.757,0,-646,248
2.758,-49,-447,149
2.759,-149,-447,99
2.760,-49,-646,-199
2.761,-248,-597,-99
2.762,-149,-547,-199
2.763,-99,-646,49
2.764,-497,-547,-49
2.765,-646,-447,199
2.766,-398,-547,-149
2.767,-447,-398,-497
2.768,-646,-398,49
2.769,-49,-646,0
2.770,-646,-99,-348
2.771,-597,-149,-398
2.772,-746,-348,-547
2.773,-348,-49,-497
2.774,-796,-348,-646
2.775,-945,-49,-547
2.776,-945,-49,-597
2.777,-696,-199,-796
2.778,-746,-99,-846
2.779,-746,49,-846
2.780,-846,-298,-746
2.781,-945,-49,-696
2.782,-696,49,-895
2.783,-746,-248,-746
2.784,-746,149,-796
2.785,-945,99,-1194
2.786,-1144,0,-895
2.787,-1194,-49,-895
2.788,-895,99,-1094
2.789,-1393,-49,-945
2.790,-1045,-49,-945
2.791,-1144,49,-846
2.792,-1094,99,-995
2.793,-1244,99,-1194
2.794,-1343,199,-1244
2.795,-1144,199,-1144
2.796,-1492,-99,-1194
2.797,-1542,49,-1343
2.798,-1443,298,-1393
2.799,-1492,348,-1045
2.800,-1492,-99,-1393
2.801,-1393,398,-1194
2.802,-1393,99,-1542
2.803,-1492,298,-1293
2.804,-1642,298,-1393
2.805,-1492,99,-1592
2.806,-1542,49,-1492
2.807,-1592,298,-1492
2.808,-1542,199,-1443
2.809,-1692,497,-1293
2.810,-1692,298,-1592
2.811,-1841,99,-1940
2.812,-1592,597,-1692
2.813,-1891,298,-1343
2.814,-1642,447,-2090
2.815,-2040,199,-1841
2.816,-2139,547,-2090
2.817,-1741,547,-2040
2.818,-1791,447,-1791
2.819,-1692,199,-2189
2.820,-2139,497,-1692
2.821,-1940,348,-1891
2.822,-1791,447,-1891
2.823,-2189,547,-2040
2.824,-2139,447,-2139
2.825,-1891,398,-2239
2.826,-2040,646,-2040
2.827,-2189,646,-1940
2.828,-2388,646,-2488
2.829,-1990,497,-2488
2.830,-1990,547,-2438
2.831,-1990,646,-2538
2.832,-1841,497,-2239
2.833,-2139,597,-2538
2.834,-2040,945,-2538
2.835,-2388,447,-2587
2.836,-2139,796,-2289
2.837,-2139,497,-2587
2.838,-2538,846,-2388
2.839,-2488,796,-2737
2.840,-2488,696,-2637
2.841,-2488,846,-2836
2.842,-2488,945,-2587
2.843,-2338,646,-2836
2.844,-2637,846,-2488
2.845,-2438,895,-2836
2.846,-2488,646,-2687
2.847,-2538,796,-2488
2.848,-2538,746,-2836
2.849,-2488,696,-2637
2.850,-2637,945,-2687
2.851,-2338,1045,-2687
2.852,-2538,796,-2687
2.853,-2438,846,-2538
2.854,-2737,646,-2687
2.855,-2388,895,-2936
2.856,-2836,547,-2836
2.857,-2388,1045,-2786
2.858,-2438,746,-2687
2.859,-2488,895,-2538
2.860,-2637,995,-2637
2.861,-2687,945,-3135
2.862,-2687,945,-2985
2.863,-2737,945,-3035
2.864,-2338,945,-2985
2.865,-2538,995,-2637
2.866,-2637,846,-2936
2.867,-2737,995,-3135
2.868,-2737,846,-2985
2.869,-2637,597,-2985
2.870,-2786,746,-2886
2.871,-2687,846,-3085
2.872,-2886,895,-2786
2.873,-2737,597,-2985
2.874,-2786,846,-2886
2.875,-2488,1045,-3234
2.876,-3085,1144,-2786
2.877,-2786,846,-3234
2.878,-2836,796,-2936
2.879,-2737,995,-3284
2.880,-2737,1194,-2737
2.881,-3035,995,-2786
2.882,-2886,846,-3234
2.883,-2786,696,-3184
2.884,-2936,846,-3135
2.885,-2737,1045,-3334
2.886,-2587,1045,-2985
2.887,-2886,1094,-3184
2.888,-2786,1144,-3085
2.889,-2985,945,-3035
2.890,-3085,547,-3135
2.891,-2985,1094,-3035
2.892,-2985,1094,-3234
2.893,-2985,995,-3284
2.894,-2786,1144,-2886
2.895,-3035,746,-3483
2.896,-2786,995,-3085
2.897,-2786,1144,-3583
2.898,-2886,1045,-3384
2.899,-2985,846,-3433
2.900,-2985,1393,-3483
2.901,-2836,1244,-3732
2.902,-3384,1443,-3583
2.903,-2886,995,-3732
2.904,-3384,1194,-3334
2.905,-2886,1393,-3831
2.906,-3085,1393,-3384
2.907,-3184,1244,-3732
2.908,-3284,1045,-3234
2.909,-3135,846,-3583
2.910,-3384,945,-3632
2.911,-2985,1293,-3533
2.912,-3284,1492,-3682
2.913,-3135,1492,-3782
2.914,-3234,1343,-3483
2.915,-3184,1094,-3632
2.916,-3234,1144,-3682
2.917,-3135,995,-3632
2.918,-3234,1244,-3682
2.919,-3184,1244,-3782
2.920,-3184,796,-3732
2.921,-3234,1194,-3583
2.922,-3234,1194,-3732
2.923,-3384,1244,-3632
2.924,-3234,995,-3782
2.925,-3135,1492,-3632
2.926,-3035,1144,-3483
2.927,-3085,1343,-3583
2.928,-3334,1045,-3931
2.929,-3184,1244,-3632
2.930,-3284,1194,-3632
2.931,-3334,1393,-3782
2.932,-3135,1194,-3931
2.933,-3234,1194,-3831
2.934,-3384,1045,-3533
2.935,-3284,1244,-3583
2.936,-2985,1293,-3632
2.937,-3184,1293,-3881
2.938,-3135,1045,-3632
2.939,-3184,1194,-3632
2.940,-3135,1244,-3831
2.941,-3334,1343,-3782
2.942,-3284,1144,-3583
2.943,-3284,1144,-3782
2.944,-3234,1343,-3682
2.945,-3184,1094,-3284
2.946,-3085,1293,-3682
2.947,-3035,1343,-3782
2.948,-3284,1144,-3632
2.949,-3384,1094,-3583
2.950,-3184,945,-3483
2.951,-3384,1144,-3583
2.952,-3184,945,-3931
2.953,-3135,1343,-3384
2.954,-3234,1343,-3782
2.955,-3234,1194,-3682
2.956,-3135,1144,-3632
2.957,-2737,1194,-3583
2.958,-3284,1045,-3433
2.959,-3184,1343,-3483
2.960,-3234,1492,-3583
2.961,-3184,1244,-3384
2.962,-3135,1144,-3384
2.963,-3035,1244,-3433
2.964,-3384,1144,-3682
2.965,-3035,1194,-3682
2.966,-2836,1144,-3632
2.967,-3384,1045,-3632
2.968,-3135,1194,-3384
2.969,-2985,1094,-3732
2.970,-3085,1194,-3632
2.971,-2985,1293,-3533
2.972,-3184,1144,-3583
2.973,-3234,1094,-3632
2.974,-2786,1343,-3682
2.975,-2836,1293,-3632
2.976,-3085,1094,-3732
2.977,-3234,1094,-3682
2.978,-3334,1244,-3732
2.979,-3085,1343,-3931
2.980,-3284,1045,-3583
2.981,-2985,895,-3682
2.982,-3384,1094,-3184
2.983,-2985,895,-3384
2.984,-2886,1194,-3682
2.985,-2886,1094,-3483
2.986,-3184,1094,-3782
2.987,-2936,1293,-3732
2.988,-2936,1443,-3583
2.989,-3135,1393,-3632
2.990,-3085,1094,-3732
2.991,-3234,895,-3583
2.992,-2886,945,-3782
2.993,-3184,1094,-3632
2.994,-2936,995,-3632
2.995,-3234,1343,-3533
2.996,-3533,1045,-3632
2.997,-2985,1194,-3632
2.998,-3384,1293,-3135
2.999,-3334,1492,-3583
3.000,-3234,1393,-3483
3.001,-3234,895,-3782
3.002,-3085,1492,-3433
3.003,-3483,1293,-3433
3.004,-3135,1194,-3682
3.005,-3334,1293,-3732
3.006,-3433,1194,-3881
3.007,-2886,1293,-3483
3.008,-3184,1393,-3533
3.009,-3284,1144,-3682
3.010,-3433,1094,-3433
3.011,-3284,1144,-3632
3.012,-3184,1045,-3682
3.013,-3284,1492,-3632
3.014,-2985,1293,-3682
3.015,-3384,1045,-3533
3.016,-3533,1592,-3583
3.017,-3085,1194,-3632
3.018,-3135,1045,-3384
3.019,-3234,1094,-3483
3.020,-2985,995,-3682
3.021,-3234,1094,-3632
3.022,-3433,1094,-3782
3.023,-3284,1443,-3881
3.024,-3384,1393,-3234
3.025,-2836,1244,-3533
3.026,-3035,1244,-3583
3.027,-3085,1194,-3384
3.028,-3135,1094,-3583
3.029,-3135,995,-3284
3.030,-3085,1244,-3533
3.031,-2886,1393,-3284
3.032,-3135,1144,-3533
3.033,-3085,1244,-3533
3.034,-3284,1144,-3583
3.035,-2936,895,-3483
3.036,-3135,1094,-3433
3.037,-3135,1194,-3384
3.038,-3234,1244,-3384
3.039,-3085,995,-3483
3.040,-3284,1045,-3682
3.041,-3085,1045,-3334
3.042,-3533,995,-3583
3.043,-2985,1244,-3533
3.044,-3085,1244,-3384
3.045,-3085,1094,-3732
3.046,-2985,1094,-3682
3.047,-3135,846,-3831
3.048,-3234,1144,-3632
3.049,-3184,1144,-3732
3.050,-3234,846,-3583
3.051,-3085,1293,-3632
3.052,-2985,1045,-3433
3.053,-3135,1244,-3284
3.054,-2985,1244,-3433
3.055,-3384,1244,-3433
3.056,-3284,995,-3732
3.057,-3284,945,-3234
3.058,-3035,1194,-3284
3.059,-3334,1094,-3483
3.060,-3135,995,-3583
3.061,-3234,1094,-3533
3.062,-3085,1393,-3433
3.063,-2836,746,-3583
3.064,-3085,1343,-3433
3.065,-3085,995,-3583
3.066,-3334,945,-2886
3.067,-2936,1293,-3483
3.068,-3135,1194,-3583
3.069,-3035,1194,-3682
3.070,-3184,1194,-3433
3.071,-3135,1094,-3732
3.072,-3085,1194,-3632
3.073,-2985,1144,-3334
3.074,-3085,1293,-3483
3.075,-3334,1144,-4080
3.076,-3135,1194,-3583
3.077,-3234,1094,-3682
3.078,-3184,1443,-3483
3.079,-2985,1343,-3533
3.080,-3334,1144,-3782
3.081,-3334,1244,-3632
3.082,-3284,945,-3583
3.083,-3234,1443,-3483
3.084,-2936,1244,-3632
3.085,-2936,1144,-3732
3.086,-3184,1094,-3632
3.087,-3184,1094,-3533
3.088,-3184,1094,-3234
3.089,-2985,1393,-3831
3.090,-3384,1045,-3384
3.091,-3334,1194,-3483
3.092,-3284,1194,-3831
3.093,-3284,1144,-3632
3.094,-3135,995,-3682
3.095,-2836,1094,-3533
3.096,-3085,1045,-3384
3.097,-3035,1144,-3433
3.098,-3135,1045,-3433
3.099,-3085,1144,-3533
3.100,-3085,1293,-3682
3.101,-3234,1094,-3682
3.102,-3234,995,-3632
3.103,-3184,1443,-3682
3.104,-3085,1045,-3632
3.105,-3234,1293,-3782
3.106,-3035,1293,-3533
3.107,-2886,1094,-3483
3.108,-3135,1244,-3533
3.109,-3184,1393,-3533
3.110,-3483,1045,-3384
3.111,-3184,995,-3483
3.112,-2936,1194,-3533
3.113,-2936,1045,-3483
3.114,-2936,1244,-3632
3.115,-3184,1194,-3533
3.116,-2985,1045,-3433
3.117,-3085,1293,-3384
3.118,-3035,945,-3583
3.119,-2936,1194,-3533
3.120,-2936,746,-3583
3.121,-3085,1293,-3384
3.122,-3284,1094,-3533
3.123,-3135,895,-3632
3.124,-3135,1244,-3583
3.125,-3334,1144,-3234
3.126,-3184,1045,-3483
3.127,-3035,1045,-3433
3.128,-2985,995,-3433
3.129,-2886,1244,-3632
3.130,-2936,1343,-3234
3.131,-2936,1045,-3284
3.132,-3234,1144,-3483
3.133,-3035,1045,-3583
3.134,-3035,1144,-3583
3.135,-3135,1045,-3483
3.136,-3234,1293,-3483
3.137,-3184,1144,-3085
3.138,-3035,995,-3583
3.139,-3085,895,-3583
3.140,-3085,1293,-3682
3.141,-2936,1244,-3334
3.142,-3035,945,-3533
3.143,-3184,895,-3483
3.144,-3184,945,-3533
3.145,-3284,1293,-3284
3.146,-2985,1094,-3433
3.147,-2886,1144,-3583
3.148,-2936,1194,-3334
3.149,-3085,1293,-3782
3.150,-2836,945,-3533
3.151,-3035,995,-3284
3.152,-3184,1194,-3782
3.153,-3284,1393,-3632
3.154,-3433,1094,-3483
3.155,-3184,1244,-3732
3.156,-3334,1144,-3533
3.157,-3035,895,-3682
3.158,-2985,1045,-3682
3.159,-3433,1542,-3632
3.160,-2985,1244,-3632
3.161,-3284,1194,-3632
3.162,-3184,1492,-3533
3.163,-3085,1144,-3732
3.164,-3334,1094,-3782
3.165,-3284,1144,-3483
3.166,-3035,1343,-3483
3.167,-3135,1343,-3334
3.168,-3184,1343,-3732
3.169,-3184,1144,-3583
3.170,-3234,945,-3533
3.171,-3035,995,-3732
3.172,-3284,1393,-3583
3.173,-2836,1194,-3632
3.174,-3085,1094,-3483
3.175,-3035,1244,-3384
3.176,-3234,1293,-3831
3.177,-3234,1443,-3632
3.178,-3135,1045,-3632
3.179,-3035,1144,-3384
3.180,-3234,1492,-3433
3.181,-2886,895,-3632
3.182,-2886,1194,-3682
3.183,-3135,945,-3483
3.184,-3284,1443,-3384
3.185,-3135,1194,-3184
3.186,-2985,1144,-3583
3.187,-2737,1194,-3384
3.188,-3085,945,-3433
3.189,-3135,1244,-3533
3.190,-2786,1443,-3284
3.191,-3234,1194,-3384
3.192,-2836,1194,-3334
3.193,-3184,1194,-3583
3.194,-2985,1244,-3334
3.195,-3234,1045,-3682
3.196,-3135,995,-3632
3.197,-3284,995,-3384
3.198,-3085,895,-3483
3.199,-3284,1244,-3632
3.200,-2936,1194,-3682
3.201,-3483,1244,-3334
3.202,-3135,1343,-3483
3.203,-3085,1045,-3632
3.204,-3085,1293,-3682
3.205,-3334,1144,-3334
3.206,-3135,1045,-3284
3.207,-3035,1194,-3234
3.208,-3384,1094,-3632
3.209,-3284,1293,-3334
3.210,-3384,846,-3583
3.211,-2985,1393,-3732
3.212,-2985,1144,-3533
3.213,-3184,1393,-3632
3.214,-3284,1045,-3583
3.215,-2886,1094,-3732
3.216,-2985,945,-3533
3.217,-2985,1144,-3483
3.218,-3234,1343,-3583
3.219,-3085,995,-3433
3.220,-2737,1343,-3483
3.221,-3035,995,-3583
3.222,-2985,995,-3184
3.223,-3035,945,-3583
3.224,-2886,1194,-3533
3.225,-3184,1244,-3533
3.226,-2985,895,-3284
3.227,-2786,895,-3135
3.228,-3284,1094,-3284
3.229,-2687,1293,-3732
3.230,-3135,1244,-3035
3.231,-3085,895,-3284
3.232,-3035,1144,-3384
3.233,-2985,995,-3085
3.234,-3135,1045,-3184
3.235,-3284,1144,-3184
3.236,-3085,796,-3583
3.237,-2985,1144,-3334
3.238,-2985,945,-3334
3.239,-2737,995,-3184
3.240,-3135,1094,-3334
3.241,-3334,995,-3483
3.242,-3035,945,-3433
3.243,-3234,1045,-3334
3.244,-2637,1194,-3035
3.245,-2886,1045,-3334
3.246,-2985,1144,-3334
3.247,-2836,945,-3583
3.248,-3035,1045,-3384
3.249,-2985,1293,-3483
3.250,-3184,1094,-3632
3.251,-3184,995,-3234
3.252,-3035,895,-3583
3.253,-3184,1244,-3682
3.254,-3234,1094,-3483
3.255,-2936,1045,-3583
3.256,-2985,1045,-3583
3.257,-3135,1045,-3384
3.258,-2985,1244,-3334
3.259,-3384,1045,-3483
3.260,-2936,1244,-3483
3.261,-3384,945,-3334
3.262,-2737,945,-3632
3.263,-3184,1293,-3483
3.264,-3085,1094,-3632
3.265,-3035,1094,-3632
3.266,-2836,895,-3583
3.267,-3135,1194,-3632
3.268,-3384,1244,-3433
3.269,-3184,1144,-3583
3.270,-2985,1094,-3433
3.271,-3135,945,-3483
3.272,-2936,1094,-3632
3.273,-2936,995,-3334
3.274,-3234,895,-3533
3.275,-2936,1194,-3384
3.276,-2836,1045,-3483
3.277,-3184,796,-3682
3.278,-2687,1244,-3483
3.279,-3184,1194,-3433
3.280,-3234,796,-3583
3.281,-2886,995,-3384
3.282,-3384,1194,-3533
3.283,-3135,1343,-3384
3.284,-3284,746,-3334
3.285,-3234,1194,-3334
3.286,-3035,1393,-3632
3.287,-3184,1293,-3483
3.288,-2786,945,-3334
3.289,-2786,1244,-3483
3.290,-3035,895,-3533
3.291,-2687,646,-3433
3.292,-3184,995,-3284
3.293,-2886,1492,-3732
3.294,-3085,995,-3384
3.295,-3085,1045,-3732
3.296,-3035,1045,-3632
3.297,-3135,1244,-3931
3.298,-3234,1144,-3334
3.299,-3135,895,-3433
3.300,-3234,1094,-3732
3.301,-3184,1194,-3533
3.302,-2936,1343,-3632
3.303,-3284,1194,-3583
3.304,-3135,1094,-3433
3.305,-3284,846,-3384
3.306,-3135,1144,-3384
3.307,-2886,1244,-3184
3.308,-3184,1194,-3384
3.309,-2786,1244,-3384
3.310,-3184,1094,-3234
3.311,-2936,1144,-3334
3.312,-2936,995,-3284
3.313,-2786,1094,-3483
3.314,-2936,746,-3433
3.315,-3085,995,-3334
3.316,-2737,1443,-3583
3.317,-2836,1094,-3334
3.318,-3035,1194,-3234
3.319,-3035,1144,-3533
3.320,-2936,945,-3135
3.321,-2836,1094,-3284
3.322,-3035,646,-3433
3.323,-2985,895,-3284
3.324,-3035,1194,-3433
3.325,-2886,1343,-3433
3.326,-3234,796,-3284
3.327,-2786,796,-3184
3.328,-3085,1244,-3433
3.329,-3035,1293,-3184
3.330,-2886,1045,-3583
3.331,-2836,995,-3334
3.332,-3184,995,-3384
3.333,-2985,1144,-3085
3.334,-2936,1045,-3384
3.335,-3035,1244,-3234
3.336,-2985,1244,-3234
3.337,-3284,1144,-3433
3.338,-2985,995,-3334
3.339,-3284,1343,-3384
3.340,-2836,995,-3533
3.341,-3184,1045,-3533
3.342,-3035,846,-3483
3.343,-2936,1194,-3384
3.344,-3384,995,-3284
3.345,-3184,995,-3384
3.346,-2985,1094,-3334
3.347,-2836,1194,-3135
3.348,-2985,895,-3234
3.349,-3035,1094,-2985
3.350,-3085,1094,-3433
3.351,-2886,1642,-3632
3.352,-2836,945,-3583
3.353,-3085,1094,-3384
3.354,-3035,995,-3433
3.355,-2886,1194,-3234
3.356,-2985,895,-3483
3.357,-3284,1045,-3632
3.358,-2936,995,-3433
3.359,-3284,846,-3533
3.360,-3284,1094,-3184
3.361,-3085,796,-3632
3.362,-2936,995,-3284
3.363,-2936,945,-3483
3.364,-3035,1144,-3533
3.365,-2836,995,-3433
3.366,-2985,945,-3583
3.367,-2985,995,-3632
3.368,-3085,1293,-3483
3.369,-2786,1343,-3483
3.370,-3035,1343,-3433
3.371,-3085,995,-3483
3.372,-3085,1293,-3384
3.373,-2886,995,-3533
3.374,-2836,1293,-3583
3.375,-2985,1045,-3433
3.376,-3284,1244,-3184
3.377,-2985,1194,-3583
3.378,-3135,995,-3284
3.379,-3085,1045,-3334
3.380,-3135,1194,-3433
3.381,-3035,1144,-3334
3.382,-3234,1045,-3433
3.383,-2786,1094,-3881
3.384,-3035,1194,-3583
3.385,-3184,1144,-3284
3.386,-2985,1244,-3384
3.387,-2936,1194,-3334
3.388,-2936,945,-3334
3.389,-2886,1045,-3433
3.390,-2886,995,-3483
3.391,-2836,1293,-3433
3.392,-3184,995,-3433
3.393,-2886,696,-3334
3.394,-2786,995,-3334
3.395,-3085,1045,-3583
3.396,-2936,995,-3135
3.397,-2836,1144,-3284
3.398,-2936,995,-3035
3.399,-2836,1045,-3384
3.400,-3184,1144,-3483
3.401,-2936,945,-3433
3.402,-3135,1293,-3583
3.403,-2737,1194,-3284
3.404,-2936,995,-3284
3.405,-2985,1293,-3433
3.406,-3085,846,-3533
3.407,-2687,1045,-3384
3.408,-2836,597,-3334
3.409,-2737,995,-3433
3.410,-3035,1194,-3085
3.411,-2936,1094,-3284
3.412,-2886,1244,-3483
3.413,-2737,1045,-3284
3.414,-2886,1244,-3184
3.415,-3135,995,-3234
3.416,-3085,846,-3334
3.417,-2637,995,-3284
3.418,-2836,1045,-3483
3.419,-3035,945,-3583
3.420,-2985,945,-3184
3.421,-3085,1144,-3234
3.422,-2786,796,-3384
3.423,-3184,1045,-3234
3.424,-2836,945,-3284
3.425,-3085,1045,-3184
3.426,-2985,995,-3533
3.427,-2936,895,-3483
3.428,-3135,945,-3483
3.429,-3284,1244,-3184
3.430,-3035,1144,-3135
3.431,-2936,1094,-3732
3.432,-3085,1393,-3284
3.433,-2985,1094,-3334
3.434,-2985,1045,-3682
3.435,-3433,995,-3384
3.436,-2637,1244,-3135
3.437,-3085,1144,-3135
3.438,-2836,995,-3334
3.439,-2836,1194,-3334
3.440,-3035,1244,-3533
3.441,-2836,1194,-3583
3.442,-2886,1045,-3384
3.443,-2886,1144,-3334
3.444,-3035,895,-3284
3.445,-2786,1045,-3234
3.446,-2886,1393,-3135
3.447,-2886,846,-3433
3.448,-2985,1094,-3284
3.449,-2985,945,-3384
3.450,-3085,1094,-3583
3.451,-3085,995,-3035
3.452,-3135,1144,-3483
3.453,-2936,995,-3384
3.454,-3085,1094,-3583
3.455,-2936,1045,-3433
3.456,-3085,1293,-3632
3.457,-3035,796,-3483
3.458,-2786,1194,-3533
3.459,-3135,1293,-3384
3.460,-3085,1045,-3234
3.461,-3135,1244,-3384
3.462,-3135,696,-3284
3.463,-3135,895,-3433
3.464,-2985,846,-3632
3.465,-3184,1244,-3483
3.466,-2985,1244,-3384
3.467,-2985,945,-3533
3.468,-2985,945,-3533
3.469,-2836,995,-3284
3.470,-2737,895,-3184
3.471,-2936,1094,-3433
3.472,-3184,945,-3384
3.473,-2985,1393,-3284
3.474,-3085,945,-3135
3.475,-2936,995,-3184
3.476,-2836,846,-3284
3.477,-2936,796,-3184
3.478,-2886,1045,-3483
3.479,-3085,1244,-3433
3.480,-2786,895,-3433
3.481,-2687,995,-3334
3.482,-2985,1144,-3334
3.483,-3135,1293,-3135
3.484,-3085,1045,-3184
3.485,-3035,696,-3234
3.486,-2786,1094,-3085
3.487,-3135,1045,-3334
3.488,-2936,995,-3583
3.489,-2985,945,-3334
3.490,-2786,895,-3284
3.491,-2836,995,-3234
3.492,-2786,1045,-3135
3.493,-2985,1144,-3035
3.494,-3085,1045,-3384
3.495,-2836,1045,-3433
3.496,-2985,995,-3284
3.497,-2936,1144,-3284
3.498,-2936,945,-3334
3.499,-3184,1244,-3085
3.500,-2737,1244,-3384
3.501,-2936,895,-3035
3.502,-2687,1244,-3184
3.503,-2985,1194,-3384
3.504,-3035,895,-3284
3.505,-3085,1244,-3583
3.506,-2786,1045,-3334
3.507,-2786,895,-3433
3.508,-3035,945,-3334
3.509,-3085,1244,-3433
3.510,-2936,796,-3284
3.511,-3085,945,-3135
3.512,-2985,945,-3334
3.513,-3085,945,-3384
3.514,-2836,1094,-3483
3.515,-3035,895,-3284
3.516,-2786,1094,-3334
3.517,-3284,895,-3632
3.518,-2737,945,-3284
3.519,-3035,1094,-3682
3.520,-2786,746,-3334
3.521,-3035,1045,-3234
3.522,-2836,945,-3583
3.523,-2936,1293,-3184
3.524,-2985,1194,-3184
3.525,-2886,846,-3334
3.526,-3184,1144,-3284
3.527,-2936,1045,-3184
3.528,-2936,1194,-3384
3.529,-3135,846,-3384
3.530,-2936,1045,-3234
3.531,-2985,846,-3334
3.532,-2985,846,-3384
3.533,-3085,1045,-3035
3.534,-2886,1194,-3483
3.535,-3135,1194,-3433
3.536,-3184,1045,-3384
3.537,-2786,945,-2936
3.538,-2637,1045,-3483
3.539,-3035,796,-3184
3.540,-3135,1293,-3284
3.541,-2936,1244,-3184
3.542,-3234,1293,-3284
3.543,-2985,1045,-3384
3.544,-2687,995,-3384
3.545,-2687,1045,-3483
3.546,-2836,1045,-3583
3.547,-2886,945,-3533
3.548,-3035,1144,-3433
3.549,-2985,1045,-3234
3.550,-3384,945,-3682
3.551,-3135,746,-3284
3.552,-2687,895,-3234
3.553,-2836,895,-3384
3.554,-2637,1045,-3234
3.555,-2936,995,-3184
3.556,-2886,846,-3533
3.557,-2985,945,-3433
3.558,-2936,746,-3284
3.559,-2836,995,-3184
3.560,-2985,1094,-2985
3.561,-3234,895,-3433
3.562,-2786,796,-3035
3.563,-3135,1293,-3334
3.564,-2985,1094,-2936
3.565,-2836,895,-3483
3.566,-2886,995,-3234
3.567,-3135,895,-3234
3.568,-2886,945,-3284
3.569,-3085,1244,-3284
3.570,-2936,846,-3135
3.571,-2737,746,-3334
3.572,-2737,1144,-3234
3.573,-2886,1045,-3234
3.574,-3035,1094,-3085
3.575,-3135,1144,-2886
3.576,-2836,995,-3234
3.577,-2886,895,-3135
3.578,-2786,1045,-3384
3.579,-2985,895,-3085
3.580,-2637,1045,-3085
3.581,-2836,1094,-3184
3.582,-2836,1194,-3384
3.583,-2786,945,-3284
3.584,-3035,895,-2985
3.585,-2886,1045,-3433
3.586,-2985,796,-3334
3.587,-2836,945,-3384
3.588,-2737,945,-3334
3.589,-2886,846,-3085
3.590,-2836,895,-3334
3.591,-2786,846,-3433
3.592,-2886,1045,-3234
3.593,-2737,1144,-3184
3.594,-3035,945,-3483
3.595,-3035,1094,-3284
3.596,-2886,995,-3284
3.597,-2985,1293,-3234
3.598,-3284,1045,-3184
3.599,-2936,796,-3184
3.600,-3284,1144,-3184
3.601,-2587,945,-3234
3.602,-3035,945,-3184
3.603,-2786,1045,-3384
3.604,-2836,1094,-3284
3.605,-3035,646,-3533
3.606,-2737,1244,-2985
3.607,-2737,945,-3184
3.608,-2836,1045,-3184
3.609,-2786,1144,-3184
3.610,-2836,1144,-3234
3.611,-2936,1045,-3334
3.612,-3035,1244,-3384
3.613,-2836,696,-3583
3.614,-2886,1293,-3135
3.615,-2737,1094,-3135
3.616,-2936,1194,-3334
3.617,-2836,945,-3334
3.618,-2886,895,-3184
3.619,-2786,1094,-3284
3.620,-3184,1094,-3334
3.621,-2836,1094,-3533
3.622,-2936,1045,-3384
3.623,-2836,945,-3284
3.624,-2886,796,-3433
3.625,-3085,1343,-3533
3.626,-2936,895,-3284
3.627,-2836,796,-3284
3.628,-3135,846,-3234
3.629,-2985,995,-3234
3.630,-2786,1045,-3135
3.631,-3184,945,-3234
3.632,-2985,846,-3433
3.633,-2786,1094,-3085
3.634,-2836,945,-3085
3.635,-2985,1094,-3334
3.636,-2936,1094,-3334
3.637,-2985,895,-3184
3.638,-2737,1194,-3234
3.639,-2786,1094,-3085
3.640,-2786,846,-3085
3.641,-2737,1343,-3384
3.642,-2985,1244,-3184
3.643,-2786,995,-3184
3.644,-2786,995,-3234
3.645,-3035,995,-3284
3.646,-2886,796,-3284
3.647,-2538,995,-3184
3.648,-2985,796,-2985
3.649,-2836,995,-3433
3.650,-2737,1045,-2936
3.651,-2786,895,-3334
3.652,-3035,1045,-3184
3.653,-2985,1094,-3284
3.654,-2985,945,-3184
3.655,-2637,895,-3085
3.656,-2836,1094,-3085
3.657,-2936,796,-3483
3.658,-2786,846,-3234
3.659,-2786,796,-3184
3.660,-2737,746,-3234
3.661,-2687,1244,-3384
3.662,-2737,1094,-3085
3.663,-2936,1244,-3135
3.664,-2836,1094,-3234
3.665,-2737,945,-3085
3.666,-2786,796,-3035
3.667,-2488,1144,-3284
3.668,-2936,597,-3483
3.669,-2985,646,-3135
3.670,-2985,895,-2936
3.671,-2786,1194,-3284
3.672,-2985,1045,-3135
3.673,-2538,796,-3184
3.674,-2836,995,-2985
3.675,-2687,1045,-3135
3.676,-2985,995,-3135
3.677,-2687,1293,-3234
3.678,-2886,1045,-3384
3.679,-2886,846,-3284
3.680,-2836,945,-3234
3.681,-2786,895,-2936
3.682,-2786,895,-2886
3.683,-2786,1144,-3184
3.684,-2886,746,-3184
3.685,-2737,1144,-3135
3.686,-2538,1244,-3384
3.687,-3085,846,-2936
3.688,-3085,895,-3035
3.689,-2786,995,-3284
3.690,-2737,995,-3234
3.691,-2886,746,-3234
3.692,-2587,1144,-3184
3.693,-2687,1045,-3334
3.694,-2587,995,-3085
3.695,-3085,846,-2985
3.696,-2936,1144,-2936
3.697,-2737,846,-2936
3.698,-3085,746,-3184
3.699,-2886,895,-3184
3.700,-2936,945,-2936
3.701,-2836,746,-3433
3.702,-2687,1045,-3085
3.703,-2637,945,-3135
3.704,-2936,1094,-3234
3.705,-2836,1194,-3384
3.706,-2737,1045,-3533
3.707,-2587,646,-3085
3.708,-2438,895,-2985
3.709,-2786,895,-3234
3.710,-2985,895,-3334
3.711,-2936,796,-3433
3.712,-2886,995,-3234
3.713,-2836,1045,-2936
3.714,-2985,846,-2936
3.715,-2985,945,-3234
3.716,-2786,895,-3184
3.717,-2836,696,-3085
3.718,-2737,1045,-3234
3.719,-2687,846,-3284
3.720,-2687,547,-3184
3.721,-2836,945,-2985
3.722,-2786,895,-3334
3.723,-2587,945,-3234
3.724,-2587,945,-3035
3.725,-2737,696,-3085
3.726,-2886,1094,-2985
3.727,-2836,1045,-3085
3.728,-2786,995,-3334
3.729,-2985,796,-3384
3.730,-2587,846,-3135
3.731,-2737,1094,-3234
3.732,-2737,796,-3035
3.733,-2886,796,-3184
3.734,-2786,796,-3035
3.735,-2687,497,-3284
3.736,-2836,895,-3035
3.737,-2737,846,-2936
3.738,-2637,1244,-2936
3.739,-2836,1244,-3135
3.740,-2936,1045,-3384
3.741,-2886,895,-3384
3.742,-2637,945,-2985
3.743,-2836,1094,-3035
3.744,-2836,945,-3085
3.745,-2936,1194,-3234
3.746,-2687,895,-3085
3.747,-2338,895,-2936
3.748,-2836,497,-3035
3.749,-2687,995,-3085
3.750,-2737,1343,-3035
3.751,-2737,945,-3184
3.752,-2737,1045,-2886
3.753,-2488,597,-2985
3.754,-2587,945,-3533
3.755,-2886,1045,-3284
3.756,-2936,945,-3085
3.757,-2836,746,-3284
3.758,-2886,846,-3184
3.759,-2786,895,-2936
3.760,-2687,1045,-3284
3.761,-2637,547,-3184
3.762,-2886,895,-3184
3.763,-2886,796,-3234
3.764,-2687,846,-2985
3.765,-2836,1045,-2936
3.766,-2737,646,-2936
3.767,-2836,895,-3184
3.768,-3085,846,-3184
3.769,-2886,945,-3384
3.770,-2786,696,-3135
3.771,-2786,447,-3184
3.772,-2936,746,-3384
3.773,-2538,846,-3184
3.774,-3035,895,-2936
3.775,-2936,846,-3334
3.776,-2886,746,-2936
3.777,-2737,746,-3135
3.778,-2886,1045,-3234
3.779,-2836,945,-3284
3.780,-2587,1045,-2985
3.781,-3085,796,-3135
3.782,-2786,846,-3234
3.783,-2786,945,-3234
3.784,-2786,895,-3284
3.785,-2786,746,-3135
3.786,-2538,746,-3234
3.787,-2985,646,-3184
3.788,-2786,945,-3035
3.789,-2687,796,-3184
3.790,-2687,895,-3035
3.791,-2587,696,-3234
3.792,-2587,995,-3135
3.793,-2786,945,-3085
3.794,-2985,796,-3234
3.795,-2687,846,-3085
3.796,-2836,995,-3085
3.797,-2836,1094,-3184
3.798,-2886,846,-3085
3.799,-2637,796,-3135
3.800,-2587,846,-3284
3.801,-2786,895,-3184
3.802,-2637,646,-3184
3.803,-2488,846,-3035
3.804,-2637,995,-3284
3.805,-2836,995,-3632
3.806,-2687,846,-3035
3.807,-2637,945,-2936
3.808,-2786,597,-3085
3.809,-2538,895,-3284
3.810,-2538,945,-3135
3.811,-2786,995,-3035
3.812,-2587,746,-3035
3.813,-2388,1144,-2936
3.814,-2786,646,-3184
3.815,-2637,746,-2985
3.816,-2538,846,-3035
3.817,-2786,696,-3035
3.818,-2737,1094,-3035
3.819,-2786,846,-2737
3.820,-3085,1194,-2936
3.821,-2687,995,-3284
3.822,-2786,696,-2687
3.823,-2836,895,-3234
3.824,-2587,895,-3135
3.825,-2786,995,-2985
3.826,-2786,995,-3234
3.827,-2338,1094,-3135
3.828,-2637,995,-2936
3.829,-2637,696,-3135
3.830,-2737,945,-3184
3.831,-2388,995,-3184
3.832,-2637,846,-2737
3.833,-2587,945,-2936
3.834,-2936,696,-3234
3.835,-2637,696,-3035
3.836,-2587,1045,-2886
3.837,-2637,746,-3035
3.838,-3085,1144,-3184
3.839,-2687,497,-2985
3.840,-2886,846,-3085
3.841,-2488,895,-3135
3.842,-2985,995,-3234
3.843,-2985,796,-3085
3.844,-2637,447,-3184
3.845,-2786,646,-3085
3.846,-2985,945,-2538
3.847,-2587,1244,-3085
3.848,-2438,696,-3334
3.849,-2637,796,-3035
3.850,-2737,895,-2786
3.851,-2438,646,-3234
3.852,-2488,846,-3234
3.853,-2836,1343,-3085
3.854,-2388,1094,-2836
3.855,-2737,995,-3035
3.856,-2737,846,-3334
3.857,-2637,995,-3135
3.858,-2786,895,-3135
3.859,-2538,1343,-3384
3.860,-2936,796,-2587
3.861,-2836,1045,-2886
3.862,-2637,995,-3035
3.863,-2587,1244,-2886
3.864,-2985,895,-2687
3.865,-2886,895,-2886
3.866,-2687,1094,-3184
3.867,-2836,846,-3135
3.868,-2786,796,-3135
3.869,-2737,945,-3135
3.870,-2687,945,-3234
3.871,-2737,796,-3184
3.872,-2388,1144,-3085
3.873,-2587,995,-3184
3.874,-2637,846,-3035
3.875,-3085,995,-3035
3.876,-2737,1244,-3085
3.877,-2737,1045,-3035
3.878,-2836,846,-2786
3.879,-2587,846,-3135
3.880,-2687,995,-2936
3.881,-2687,945,-3184
3.882,-2538,796,-2836
3.883,-2637,597,-3085
3.884,-2936,945,-2836
3.885,-2737,945,-2836
3.886,-2886,945,-3035
3.887,-2737,1293,-3234
3.888,-2786,646,-3135
3.889,-2786,1144,-3184
3.890,-2538,1094,-3184
3.891,-2836,1045,-3035
3.892,-2886,846,-3035
3.893,-3035,646,-3085
3.894,-2538,895,-2985
3.895,-2936,497,-3184
3.896,-2786,945,-3284
3.897,-2687,1194,-3085
3.898,-2786,746,-2786
3.899,-2587,895,-3085
3.900,-2687,597,-3035
3.901,-2786,746,-2886
3.902,-3184,945,-3284
3.903,-2836,1094,-2886
3.904,-2836,895,-3234
3.905,-2687,895,-2786
3.906,-2886,995,-3085
3.907,-2737,1194,-3035
3.908,-2637,945,-2936
3.909,-2786,995,-2936
3.910,-2836,995,-2985
3.911,-2886,945,-2886
3.912,-2985,746,-3035
3.913,-2786,1045,-3035
3.914,-2687,995,-3433
3.915,-2886,696,-3135
3.916,-2886,995,-3085
3.917,-2786,547,-2985
3.918,-2836,895,-3085
3.919,-2786,696,-2836
3.920,-2687,1045,-3085
3.921,-2737,796,-3135
3.922,-2687,895,-2836
3.923,-2836,696,-2836
3.924,-2388,1094,-3135
3.925,-2488,846,-2786
3.926,-2836,846,-3035
3.927,-2786,696,-3135
3.928,-2687,1094,-2786
3.929,-2836,1045,-2985
3.930,-2737,995,-2985
3.931,-2538,895,-3234
3.932,-3035,895,-2886
3.933,-2836,696,-3085
3.934,-2637,895,-2985
3.935,-2737,995,-3085
3.936,-2786,1144,-2886
3.937,-2587,447,-3035
3.938,-2936,597,-2985
3.939,-2737,547,-3135
3.940,-2737,995,-3085
3.941,-2637,945,-3234
3.942,-2438,945,-2985
3.943,-2687,796,-2786
3.944,-2538,895,-2936
3.945,-2737,796,-3035
3.946,-2886,696,-2985
3.947,-2438,895,-3135
3.948,-2737,945,-3184
3.949,-2737,746,-2687
3.950,-2737,846,-3184
3.951,-2786,895,-2985
3.952,-2687,846,-3085
3.953,-2637,696,-3035
3.954,-2637,1094,-2886
3.955,-2737,1094,-2985
3.956,-2488,746,-2836
3.957,-2637,1244,-3035
3.958,-2538,846,-2836
3.959,-2786,696,-3284
3.960,-2737,796,-2936
3.961,-2538,1045,-3135
3.962,-2438,696,-3135
3.963,-2637,995,-3135
3.964,-2737,945,-3135
3.965,-2886,1094,-3234
3.966,-2936,895,-2936
3.967,-2737,895,-2985
3.968,-2687,746,-2786
3.969,-2338,995,-3035
3.970,-2836,846,-3184
3.971,-2637,1045,-3135
3.972,-2936,646,-3284
3.973,-2687,796,-3135
3.974,-2687,1194,-2737
3.975,-2836,895,-3035
3.976,-2538,945,-3135
3.977,-2488,646,-3135
3.978,-2786,846,-2936
3.979,-2936,945,-3135
3.980,-2786,1045,-3184
3.981,-2737,746,-2886
3.982,-2687,796,-3035
3.983,-2737,447,-3035
3.984,-2687,995,-3135
3.985,-2687,1045,-2886
3.986,-2786,895,-3135
3.987,-2836,1045,-3035
3.988,-2538,1045,-2985
3.989,-2836,1045,-2936
3.990,-2687,1144,-2936
3.991,-2687,796,-2936
3.992,-2538,995,-3135
3.993,-2886,995,-3085
3.994,-2737,846,-2886
3.995,-2587,746,-2886
3.996,-2786,945,-2886
3.997,-2836,796,-2936
3.998,-2488,995,-2936
3.999,-2438,846,-2985
4.000,-2488,796,-3184
4.001,-2587,1094,-3035
4.002,-2687,945,-2886
4.003,-2438,846,-3334
4.004,-2737,846,-3085
4.005,-2737,945,-2786
4.006,-2687,746,-2786
4.007,-2836,846,-3234
4.008,-2786,746,-3284
4.009,-2687,547,-3085
4.010,-2985,547,-3184
4.011,-2737,646,-2936
4.012,-2687,846,-3085
4.013,-2836,846,-3135
4.014,-2985,1293,-2786
4.015,-2488,846,-3085
4.016,-2737,895,-3184
4.017,-2737,846,-2886
4.018,-2637,646,-3085
4.019,-2637,696,-2836
4.020,-2786,945,-3184
4.021,-2786,1045,-3035
4.022,-2637,796,-2936
4.023,-2786,895,-2936
4.024,-2488,796,-3085
4.025,-2786,796,-2985
4.026,-2637,1045,-2936
4.027,-2786,597,-2936
4.028,-2786,995,-2836
4.029,-2488,1094,-3085
4.030,-2886,945,-3085
4.031,-2637,1045,-3135
4.032,-2587,846,-2985
4.033,-2338,895,-2886
4.034,-2786,746,-3234
4.035,-2637,796,-3384
4.036,-2587,895,-3035
4.037,-2886,547,-3234
4.038,-2936,995,-2985
4.039,-2637,995,-3384
4.040,-2936,696,-2936
4.041,-2737,846,-3035
4.042,-2836,696,-3085
4.043,-2687,796,-3035
4.044,-2637,796,-3085
4.045,-2538,796,-3234
4.046,-2587,1094,-3184
4.047,-2687,945,-2836
4.048,-3135,1194,-3184
4.049,-2538,796,-3234
4.050,-2637,1094,-3433
4.051,-2836,945,-3085
4.052,-2836,1045,-3035
4.053,-2538,796,-3085
4.054,-3085,646,-3284
4.055,-2637,995,-3035
4.056,-2786,995,-3035
4.057,-2587,597,-2886
4.058,-2687,995,-2936
4.059,-2687,1144,-3284
4.060,-2886,1144,-3184
4.061,-2936,895,-2985
4.062,-2936,1343,-3085
4.063,-2737,846,-2836
4.064,-2737,846,-3334
4.065,-2687,746,-2985
4.066,-2737,1094,-3085
4.067,-2687,1045,-3035
4.068,-2836,696,-3035
4.069,-2587,746,-3085
4.070,-2239,846,-3135
4.071,-2687,1045,-2985
4.072,-2687,796,-2936
4.073,-2836,895,-2886
4.074,-2786,796,-3035
4.075,-2637,945,-2886
4.076,-2737,895,-2985
4.077,-2737,945,-2936
4.078,-2737,796,-3035
4.079,-2786,746,-2985
4.080,-2637,846,-2936
4.081,-2488,945,-3184
4.082,-2886,746,-2985
4.083,-2538,1094,-2836
4.084,-2637,945,-2985
4.085,-2786,846,-2985
4.086,-2786,846,-2886
4.087,-3135,895,-2886
4.088,-2786,995,-3184
4.089,-2587,846,-2936
4.090,-2886,497,-3135
4.091,-2438,696,-3035
4.092,-2637,597,-2886
4.093,-2836,846,-2886
4.094,-2687,1045,-2936
4.095,-2587,895,-2687
4.096,-2488,696,-3135
4.097,-2637,1094,-2985
4.098,-2637,597,-3035
4.099,-2687,846,-2836
4.100,-2488,895,-2936
4.101,-2538,696,-2936
4.102,-2488,796,-2737
4.103,-2836,796,-2886
4.104,-2587,746,-2936
4.105,-2637,1144,-2886
4.106,-2786,696,-2836
4.107,-2637,696,-2836
4.108,-2488,846,-3085
4.109,-2538,547,-2985
4.110,-2587,895,-3135
4.111,-2637,895,-3384
4.112,-2438,1045,-2985
4.113,-2587,796,-3135
4.114,-2538,895,-2985
4.115,-3035,646,-2985
4.116,-2637,846,-3085
4.117,-2637,895,-2886
4.118,-2488,1094,-2786
4.119,-2488,945,-2737
4.120,-2488,796,-3184
4.121,-2488,746,-3035
4.122,-2936,945,-2936
4.123,-2488,796,-2886
4.124,-2637,696,-2637
4.125,-2687,597,-2936
4.126,-2687,796,-3035
4.127,-2737,646,-2886
4.128,-2786,696,-3085
4.129,-2438,846,-3035
4.130,-2737,846,-2985
4.131,-2637,846,-3085
4.132,-2587,796,-2737
4.133,-2438,945,-3135
4.134,-2488,945,-2886
4.135,-2338,945,-2936
4.136,-2587,945,-2687
4.137,-2438,846,-3085
4.138,-2786,995,-2936
4.139,-2836,895,-2985
4.140,-2687,597,-2936
4.141,-2488,846,-2985
4.142,-2587,895,-3085
4.143,-2737,945,-2637
4.144,-2587,895,-2836
4.145,-2538,746,-2737
4.146,-2737,945,-3035
4.147,-2587,796,-3085
4.148,-2687,895,-2836
4.149,-2687,746,-3135
4.150,-2637,995,-2886
4.151,-2737,796,-2985
4.152,-2438,796,-2936
4.153,-2538,895,-2985
4.154,-2587,846,-2836
4.155,-2388,597,-2985
4.156,-2886,846,-2737
4.157,-2687,995,-2936
4.158,-2438,895,-2936
4.159,-2737,945,-2836
4.160,-2786,1144,-2886
4.161,-2786,945,-3184
4.162,-2737,746,-3085
4.163,-2886,846,-3085
4.164,-2737,696,-2886
4.165,-2438,646,-2737
4.166,-2587,646,-3384
4.167,-2737,597,-2936
4.168,-2786,945,-3284
4.169,-2338,646,-3035
4.170,-2836,1244,-2836
4.171,-2687,945,-2936
4.172,-2737,746,-2985
4.173,-2985,945,-3184
4.174,-2388,895,-3135
4.175,-2338,796,-3085
4.176,-2488,796,-3135
4.177,-2737,646,-2936
4.178,-2786,796,-3234
4.179,-2488,746,-2886
4.180,-2786,846,-2886
4.181,-2538,895,-2985
4.182,-2687,995,-3035
4.183,-2737,796,-3085
4.184,-2737,696,-2886
4.185,-2886,846,-2936
4.186,-2637,945,-3284
4.187,-2587,995,-2886
4.188,-2637,447,-2985
4.189,-2786,796,-2886
4.190,-2488,746,-3135
4.191,-2737,1045,-2985
4.192,-2538,696,-2836
4.193,-2388,1094,-3035
4.194,-2687,696,-2936
4.195,-2587,646,-3135
4.196,-2538,646,-2737
4.197,-2637,846,-3184
4.198,-2587,746,-2836
4.199,-2587,1244,-3085
4.200,-2936,895,-3085
4.201,-2687,796,-3035
4.202,-2587,796,-2936
4.203,-2637,895,-3234
4.204,-2637,646,-2737
4.205,-2836,597,-2737
4.206,-2587,646,-2687
4.207,-2587,945,-2936
4.208,-2637,1094,-2836
4.209,-2936,696,-2836
4.210,-2737,895,-2985
4.211,-2687,746,-2985
4.212,-2687,995,-2786
4.213,-2637,796,-2886
4.214,-2637,945,-3433
4.215,-2637,895,-2836
4.216,-2189,746,-2936
4.217,-2538,846,-2985
4.218,-2587,646,-3035
4.219,-2637,945,-3234
4.220,-2388,1045,-2587
4.221,-2637,995,-2786
4.222,-2786,746,-2985
4.223,-2737,796,-2886
4.224,-2587,895,-2985
4.225,-2836,746,-3184
4.226,-2587,497,-2786
4.227,-2786,696,-3184
4.228,-2538,796,-2985
4.229,-2488,746,-2786
4.230,-2637,646,-2886
4.231,-2637,696,-2836
4.232,-2289,995,-2836
4.233,-2388,846,-2985
4.234,-2488,945,-2786
4.235,-2488,1045,-2836
4.236,-2388,846,-2836
4.237,-2587,846,-2836
4.238,-2289,945,-2936
4.239,-2836,995,-2687
4.240,-2438,1045,-3234
4.241,-2488,746,-2687
4.242,-2338,895,-2538
4.243,-2538,796,-2936
4.244,-2488,746,-2737
4.245,-2538,696,-2786
4.246,-2388,796,-2538
4.247,-2338,846,-2985
4.248,-2786,846,-2786
4.249,-2737,895,-2836
4.250,-2637,796,-2786
4.251,-2587,945,-2687
4.252,-2538,945,-2886
4.253,-2488,846,-2687
4.254,-2687,895,-3135
4.255,-2737,796,-2786
4.256,-2388,547,-2985
4.257,-2637,945,-3035
4.258,-2687,895,-2886
4.259,-2488,497,-2886
4.260,-2289,497,-2936
4.261,-2587,646,-2886
4.262,-2388,846,-2985
4.263,-2637,1045,-3234
4.264,-2687,696,-2836
4.265,-2587,945,-3035
4.266,-2637,895,-3035
4.267,-2786,497,-2786
4.268,-2488,846,-2737
4.269,-2836,646,-2886
4.270,-2737,696,-3085
4.271,-2936,796,-3035
4.272,-2637,547,-2737
4.273,-2438,945,-3284
4.274,-2637,945,-2836
4.275,-2886,846,-2687
4.276,-2488,696,-3035
4.277,-2637,995,-3135
4.278,-2687,796,-2985
4.279,-2687,895,-2786
4.280,-2886,945,-3135
4.281,-2687,846,-2836
4.282,-2587,945,-2836
4.283,-2687,945,-2886
4.284,-2587,1144,-2786
4.285,-2836,846,-3135
4.286,-2438,895,-3035
4.287,-2737,846,-2587
4.288,-2388,846,-3035
4.289,-2786,1045,-3035
4.290,-2587,796,-2985
4.291,-2438,796,-2687
4.292,-2388,895,-2786
4.293,-2587,696,-2836
4.294,-2587,846,-2687
4.295,-2538,746,-2587
4.296,-2587,646,-2936
4.297,-2438,895,-3035
4.298,-2488,895,-2737
4.299,-2388,945,-2687
4.300,-2488,895,-2886
4.301,-2388,945,-2786
4.302,-2538,796,-2786
4.303,-2488,646,-2737
4.304,-2388,945,-2936
4.305,-2538,746,-2886
4.306,-2488,746,-2985
4.307,-2737,796,-2538
4.308,-2438,846,-2936
4.309,-2538,796,-2836
4.310,-2538,846,-2737
4.311,-2687,995,-2886
4.312,-2388,696,-2786
4.313,-2737,895,-3085
4.314,-2587,746,-2936
4.315,-2737,696,-3035
4.316,-2587,895,-2886
4.317,-2637,1045,-2637
4.318,-2388,846,-2886
4.319,-2438,945,-2836
4.320,-2438,547,-2587
4.321,-2687,796,-2836
4.322,-2538,796,-2836
4.323,-2388,895,-2936
4.324,-2587,746,-2985
4.325,-2388,995,-2936
4.326,-2538,895,-2786
4.327,-2587,796,-3135
4.328,-2289,597,-2985
4.329,-2538,895,-2538
4.330,-2637,696,-2637
4.331,-2637,895,-2637
4.332,-2637,945,-2786
4.333,-2786,597,-2687
4.334,-2189,696,-2438
4.335,-2338,796,-3085
4.336,-2488,646,-2538
4.337,-2438,895,-2786
4.338,-2538,796,-2836
4.339,-2139,746,-2985
4.340,-2239,895,-2637
4.341,-2687,646,-2936
4.342,-2538,796,-2786
4.343,-2687,696,-2687
4.344,-2189,846,-3035
4.345,-2289,796,-2687
4.346,-2538,895,-2687
4.347,-2587,1094,-2886
4.348,-2488,1045,-2737
4.349,-2737,1094,-3085
4.350,-2488,846,-2936
4.351,-2538,746,-2786
4.352,-2687,945,-2936
4.353,-2388,846,-2687
4.354,-2488,746,-2985
4.355,-2786,846,-2836
4.356,-2239,696,-2737
4.357,-2786,696,-2936
4.358,-2289,846,-2587
4.359,-2338,746,-2985
4.360,-2637,696,-2985
4.361,-2687,746,-2538
4.362,-2637,597,-2786
4.363,-2388,646,-2886
4.364,-2637,1045,-2936
4.365,-2438,846,-2985
4.366,-2289,696,-2836
4.367,-2488,895,-2786
4.368,-2737,945,-2687
4.369,-2587,597,-2936
4.370,-2538,646,-2886
4.371,-2438,696,-2737
4.372,-2438,547,-2886
4.373,-2587,646,-2488
4.374,-2587,696,-2538
4.375,-2488,945,-2687
4.376,-2786,746,-2836
4.377,-2388,696,-2737
4.378,-2338,945,-2836
4.379,-2587,746,-2886
4.380,-2538,746,-2637
4.381,-2687,746,-2786
4.382,-2488,696,-2985
4.383,-2338,597,-3035
4.384,-2388,1144,-2936
4.385,-2538,547,-2936
4.386,-2637,646,-2786
4.387,-2538,746,-2836
4.388,-2438,995,-3135
4.389,-2438,646,-2985
4.390,-2388,746,-2786
4.391,-2338,447,-2687
4.392,-2637,696,-2836
4.393,-2538,945,-2786
4.394,-2488,796,-2836
4.395,-2538,746,-2587
4.396,-2289,846,-2836
4.397,-2289,646,-2637
4.398,-2587,597,-2737
4.399,-2587,846,-2985
4.400,-2786,796,-2985
4.401,-2338,547,-2687
4.402,-2488,646,-2886
4.403,-2737,846,-3135
4.404,-2488,646,-2786
4.405,-2587,646,-3184
4.406,-2338,846,-2936
4.407,-2438,547,-2637
4.408,-2538,945,-2886
4.409,-2538,547,-2637
4.410,-2388,945,-2637
4.411,-2538,696,-2786
4.412,-2836,696,-2488
4.413,-2338,895,-2886
4.414,-2239,846,-2836
4.415,-2388,746,-2538
4.416,-2538,646,-2836
4.417,-2587,895,-2836
4.418,-2388,646,-2737
4.419,-2538,696,-2936
4.420,-2538,796,-2587
4.421,-2538,796,-2886
4.422,-2587,646,-2737
4.423,-2388,746,-2538
4.424,-2538,846,-2786
4.425,-2488,895,-2886
4.426,-2538,547,-2936
4.427,-2388,746,-2985
4.428,-2538,696,-2637
4.429,-2388,497,-2737
4.430,-2289,547,-2886
4.431,-2189,646,-2886
4.432,-2338,497,-2786
4.433,-2289,646,-2786
4.434,-2239,1094,-2587
4.435,-2438,796,-2637
4.436,-2338,846,-2985
4.437,-2687,746,-2836
4.438,-2587,746,-2488
4.439,-2438,696,-3035
4.440,-2388,796,-3085
4.441,-2786,846,-2936
4.442,-2538,895,-2886
4.443,-2289,895,-2886
4.444,-2587,746,-2786
4.445,-2488,348,-2836
4.446,-2488,696,-3184
4.447,-2538,995,-3035
4.448,-2488,796,-2637
4.449,-2587,646,-2786
4.450,-2289,547,-2737
4.451,-2289,696,-2737
4.452,-2040,796,-2936
4.453,-2438,796,-2786
4.454,-2637,547,-2587
4.455,-2687,746,-2886
4.456,-2438,796,-3035
4.457,-2587,895,-2836
4.458,-2587,597,-2936
4.459,-2189,1094,-2936
4.460,-2289,646,-2687
4.461,-2687,746,-2936
4.462,-2338,796,-2786
4.463,-2587,646,-2637
4.464,-2438,846,-2985
4.465,-2139,696,-2687
4.466,-2488,646,-2786
4.467,-2438,597,-2637
4.468,-2538,746,-2538
4.469,-2637,846,-2786
4.470,-2587,547,-2587
4.471,-2488,1045,-2687
4.472,-2438,348,-2836
4.473,-2587,846,-2637
4.474,-2388,846,-3035
4.475,-2438,696,-2538
4.476,-2338,846,-2786
4.477,-2289,447,-2936
4.478,-2488,447,-2438
4.479,-2488,746,-2936
4.480,-2289,846,-2587
4.481,-2737,597,-3234
4.482,-2438,646,-2687
4.483,-2587,895,-2786
4.484,-2189,796,-2687
4.485,-2438,597,-2538
4.486,-2438,895,-2687
4.487,-2637,1094,-2687
4.488,-2189,696,-2637
4.489,-2388,597,-2338
4.490,-2587,746,-2936
4.491,-2488,597,-2637
4.492,-2239,895,-2985
4.493,-2538,597,-2637
4.494,-2587,796,-2786
4.495,-2538,746,-2538
4.496,-2289,646,-2737
4.497,-2338,597,-2587
4.498,-2737,696,-2886
4.499,-2737,746,-2687
4.500,-2388,746,-2985
4.501,-2388,597,-2786
4.502,-2239,746,-2985
4.503,-2587,497,-2786
4.504,-2388,597,-2886
4.505,-2289,846,-2637
4.506,-2289,846,-2936
4.507,-2438,796,-2538
4.508,-2587,846,-2538
4.509,-2338,646,-2836
4.510,-2289,746,-2836
4.511,-2338,646,-2687
4.512,-2090,646,-2836
4.513,-2587,746,-2587
4.514,-2438,696,-2488
4.515,-2637,497,-2637
4.516,-2488,746,-3035
4.517,-2488,597,-2737
4.518,-2388,497,-2637
4.519,-2737,796,-2786
4.520,-2289,796,-2388
4.521,-2488,597,-2836
4.522,-2239,995,-2786
4.523,-2587,646,-2687
4.524,-2388,597,-2985
4.525,-2438,497,-2687
4.526,-2438,945,-2836
4.527,-2388,846,-2538
4.528,-2388,895,-2488
4.529,-2438,746,-2836
4.530,-2438,846,-2836
4.531,-2438,746,-2786
4.532,-2289,696,-2687
4.533,-2587,696,-2637
4.534,-2538,497,-2687
4.535,-2189,646,-2488
4.536,-2239,846,-2587
4.537,-2488,895,-2587
4.538,-2338,597,-2737
4.539,-2438,846,-2836
4.540,-2438,796,-2637
4.541,-2338,646,-2637
4.542,-2338,597,-2985
4.543,-2338,646,-2637
4.544,-2338,895,-2587
4.545,-2538,796,-2687
4.546,-2687,696,-2587
4.547,-2338,597,-2786
4.548,-2438,746,-2637
4.549,-2488,895,-2637
4.550,-2289,846,-2488
4.551,-2289,597,-2687
4.552,-2090,597,-2786
4.553,-2189,646,-2388
4.554,-2388,796,-2836
4.555,-2488,746,-2836
4.556,-2438,646,-2438
4.557,-2338,895,-2488
4.558,-2090,796,-2587
4.559,-2488,447,-2737
4.560,-2189,796,-2637
4.561,-2289,597,-3085
4.562,-2538,796,-2786
4.563,-2488,1094,-2538
4.564,-2488,846,-2538
4.565,-2239,497,-2836
4.566,-2189,895,-2836
4.567,-2090,1094,-2637
4.568,-2239,646,-2886
4.569,-2289,497,-2737
4.570,-2488,995,-2637
4.571,-2239,547,-2687
4.572,-2538,746,-2737
4.573,-2488,696,-2687
4.574,-2438,895,-2886
4.575,-2338,846,-2388
4.576,-2338,895,-2936
4.577,-2388,796,-2737
4.578,-2338,895,-2538
4.579,-2388,398,-2687
4.580,-2388,895,-2538
4.581,-2687,945,-2786
4.582,-2338,646,-2538
4.583,-2538,646,-2438
4.584,-2637,746,-2836
4.585,-2289,846,-2488
4.586,-2090,846,-2338
4.587,-2189,646,-2786
4.588,-2538,796,-2836
4.589,-2139,746,-2438
4.590,-2388,796,-2438
4.591,-2687,696,-2538
4.592,-2239,497,-2687
4.593,-2388,895,-2985
4.594,-2338,796,-2737
4.595,-2438,696,-2886
4.596,-2289,796,-2538
4.597,-2538,846,-2538
4.598,-2239,796,-2587
4.599,-2836,597,-2438
4.600,-2289,746,-2786
4.601,-2438,447,-2687
4.602,-2587,597,-2836
4.603,-2488,696,-2538
4.604,-2587,796,-3085
4.605,-2587,746,-2886
4.606,-2338,746,-2936
4.607,-2488,646,-2737
4.608,-2438,646,-2737
4.609,-2239,646,-2438
4.610,-2189,696,-2538
4.611,-2239,895,-2985
4.612,-2488,646,-2687
4.613,-2438,696,-2587
4.614,-2587,945,-2687
4.615,-2139,895,-2737
4.616,-2338,895,-2687
4.617,-2388,696,-2737
4.618,-2538,646,-2488
4.619,-2338,646,-2737
4.620,-2388,846,-2587
4.621,-2488,746,-2687
4.622,-2239,547,-2587
4.623,-2438,597,-2438
4.624,-2388,796,-2488
4.625,-2139,895,-2786
4.626,-2637,696,-2687
4.627,-2438,746,-2687
4.628,-2388,547,-2737
4.629,-2289,597,-2886
4.630,-2438,945,-2737
4.631,-2338,547,-2388
4.632,-2239,447,-2338
4.633,-2587,597,-2836
4.634,-2040,696,-2587
4.635,-2587,597,-2587
4.636,-2040,547,-2687
4.637,-2538,597,-2985
4.638,-2438,746,-2687
4.639,-2538,646,-2538
4.640,-2040,746,-2488
4.641,-2289,746,-2936
4.642,-2040,895,-2637
4.643,-2189,746,-2289
4.644,-2239,497,-2687
4.645,-2189,497,-2687
4.646,-2139,796,-2587
4.647,-2488,597,-2687
4.648,-2189,547,-2637
4.649,-2189,597,-2637
4.650,-2239,746,-2786
4.651,-2139,895,-2886
4.652,-2239,746,-2538
4.653,-2139,398,-2587
4.654,-2538,348,-2488
4.655,-2239,696,-2488
4.656,-2488,597,-2687
4.657,-2438,497,-2587
4.658,-2189,348,-2488
4.659,-2040,895,-2438
4.660,-2488,597,-2786
4.661,-2338,696,-2737
4.662,-2338,547,-2737
4.663,-2139,846,-2687
4.664,-2189,796,-2786
4.665,-2139,597,-2936
4.666,-2438,597,-2488
4.667,-2488,497,-2587
4.668,-2289,796,-2786
4.669,-2338,945,-2438
4.670,-2488,597,-2587
4.671,-2687,746,-2687
4.672,-2239,597,-2936
4.673,-2289,796,-2687
4.674,-2139,1045,-2786
4.675,-2189,696,-2538
4.676,-2338,696,-2737
4.677,-2488,547,-2538
4.678,-2538,746,-2587
4.679,-2538,746,-2538
4.680,-2687,945,-2836
4.681,-2388,746,-2985
4.682,-2637,696,-2538
4.683,-2289,796,-2587
4.684,-2090,597,-2538
4.685,-2040,895,-2538
4.686,-2388,646,-2538
4.687,-2338,646,-2737
4.688,-2388,646,-2438
4.689,-2488,796,-2538
4.690,-2438,696,-2737
4.691,-2438,597,-2687
4.692,-2637,497,-2438
4.693,-2338,696,-2886
4.694,-2139,895,-2786
4.695,-2289,646,-2587
4.696,-2289,646,-2836
4.697,-2289,796,-2786
4.698,-2488,547,-2637
4.699,-2289,597,-2637
4.700,-2338,846,-2687
4.701,-2040,696,-2488
4.702,-2786,1244,-2687
4.703,-2239,746,-2587
4.704,-2338,646,-2388
4.705,-2488,696,-2786
4.706,-2538,646,-2587
4.707,-2438,597,-2388
4.708,-2338,597,-2786
4.709,-2189,746,-2737
4.710,-2289,348,-2637
4.711,-2289,895,-2388
4.712,-2239,846,-2637
4.713,-2438,597,-2886
4.714,-2338,696,-2438
4.715,-2289,895,-2737
4.716,-2488,746,-2587
4.717,-2438,597,-2737
4.718,-2388,895,-2687
4.719,-2388,796,-2637
4.720,-2388,597,-2737
4.721,-2438,348,-2687
4.722,-2139,597,-2637
4.723,-2388,696,-2687
4.724,-2438,746,-2637
4.725,-2538,796,-2388
4.726,-2538,846,-2737
4.727,-2438,696,-2687
4.728,-2239,547,-2538
4.729,-2687,746,-2488
4.730,-2239,945,-2637
4.731,-2189,597,-2687
4.732,-2388,646,-2737
4.733,-2338,846,-2687
4.734,-2139,497,-2587
4.735,-2289,547,-2637
4.736,-2338,895,-2388
4.737,-2338,547,-2687
4.738,-2338,746,-2687
4.739,-2189,547,-2737
4.740,-2289,796,-2737
4.741,-2438,646,-2587
4.742,-2239,646,-2587
4.743,-2090,746,-2488
4.744,-2438,696,-2836
4.745,-2488,796,-2388
4.746,-2189,646,-2687
4.747,-2289,646,-2488
4.748,-2338,597,-2538
4.749,-2090,646,-2587
4.750,-2139,696,-2637
4.751,-2239,895,-2687
4.752,-2438,597,-2786
4.753,-1990,746,-2587
4.754,-2438,696,-2438
4.755,-2338,746,-2587
4.756,-2338,646,-2488
4.757,-2637,746,-2637
4.758,-2338,597,-2488
4.759,-2438,696,-2637
4.760,-2239,547,-2737
4.761,-2438,646,-2637
4.762,-2587,597,-2289
4.763,-2289,597,-2587
4.764,-2587,696,-2538
4.765,-2338,646,-2438
4.766,-2488,696,-2587
4.767,-2090,447,-2637
4.768,-2289,746,-2338
4.769,-2388,796,-2637
4.770,-2538,646,-2538
4.771,-1791,746,-2388
4.772,-2438,646,-2388
4.773,-2289,746,-2687
4.774,-2289,846,-2538
4.775,-2189,895,-2936
4.776,-2289,945,-2388
4.777,-2090,646,-2488
4.778,-2239,796,-2786
4.779,-2538,895,-2587
4.780,-2289,696,-2637
4.781,-2289,547,-2587
4.782,-2388,597,-2338
4.783,-2239,696,-2587
4.784,-2139,796,-2687
4.785,-2338,696,-2289
4.786,-2438,646,-2637
4.787,-2289,646,-2538
4.788,-2587,199,-2338
4.789,-2289,547,-2338
4.790,-2388,447,-2488
4.791,-2637,846,-2737
4.792,-2338,646,-2637
4.793,-2289,796,-2587
4.794,-2388,746,-2687
4.795,-2139,547,-2587
4.796,-2438,696,-2538
4.797,-2438,796,-2886
4.798,-2338,646,-2587
4.799,-2338,796,-2289
4.800,-2438,497,-2438
4.801,-2438,447,-2836
4.802,-2289,497,-2388
4.803,-2338,696,-2438
4.804,-2189,348,-2388
4.805,-2388,796,-2538
4.806,-2239,597,-2239
4.807,-2139,696,-2637
4.808,-2388,646,-2438
4.809,-2488,597,-2587
4.810,-2388,696,-2189
4.811,-2239,597,-2786
4.812,-2388,398,-2488
4.813,-2239,646,-2737
4.814,-2488,547,-2737
4.815,-2338,348,-2438
4.816,-2388,248,-2737
4.817,-2488,696,-2239
4.818,-2239,547,-2438
4.819,-2338,547,-2388
4.820,-2289,547,-2538
4.821,-2139,497,-2737
4.822,-2338,895,-2538
4.823,-2289,497,-2687
4.824,-2438,497,-2836
4.825,-2388,597,-2687
4.826,-2090,646,-2637
4.827,-2289,696,-2687
4.828,-2139,547,-2488
4.829,-2388,547,-2587
4.830,-2388,895,-2587
4.831,-2338,447,-2687
4.832,-2040,696,-2786
4.833,-2338,547,-2786
4.834,-2338,597,-2289
4.835,-2090,497,-2786
4.836,-2139,796,-2538
4.837,-2438,646,-2637
4.838,-2189,746,-2438
4.839,-2388,646,-2388
4.840,-2139,945,-2737
4.841,-2289,547,-2438
4.842,-2438,597,-2587
4.843,-2189,746,-2488
4.844,-2289,547,-2488
4.845,-2338,497,-2438
4.846,-2189,746,-2388
4.847,-1940,497,-2737
4.848,-2438,746,-2289
4.849,-2388,746,-2637
4.850,-1940,895,-2538
4.851,-2338,646,-2587
4.852,-2189,447,-2836
4.853,-2090,398,-2488
4.854,-2189,497,-2538
4.855,-2239,696,-2637
4.856,-2090,846,-2388
4.857,-2289,447,-2538
4.858,-2189,746,-2687
4.859,-2040,497,-2637
4.860,-2289,696,-2538
4.861,-2239,547,-2289
4.862,-1891,497,-2388
4.863,-2239,547,-2587
4.864,-2239,746,-2438
4.865,-2289,447,-2338
4.866,-2090,696,-2587
4.867,-2289,796,-2538
4.868,-2139,497,-2488
4.869,-2239,597,-2388
4.870,-2289,248,-2538
4.871,-2289,746,-2289
4.872,-2090,547,-2737
4.873,-2239,447,-2687
4.874,-2338,746,-2438
4.875,-2239,696,-2388
4.876,-2239,547,-2139
4.877,-2239,597,-2388
4.878,-2189,746,-2438
4.879,-2189,746,-2687
4.880,-2388,547,-2488
4.881,-2189,497,-2538
4.882,-2239,398,-2587
4.883,-2090,796,-2538
4.884,-1990,746,-2388
4.885,-2289,696,-2388
4.886,-2388,1045,-2338
4.887,-2289,796,-2338
4.888,-2488,746,-2637
4.889,-2637,398,-2587
4.890,-2139,597,-2488
4.891,-2239,696,-2687
4.892,-2338,547,-2239
4.893,-2538,348,-2338
4.894,-2239,646,-2637
4.895,-2289,646,-2637
4.896,-2388,696,-2438
4.897,-2090,646,-2488
4.898,-2239,646,-2587
4.899,-2189,398,-2438
4.900,-2338,945,-2438
4.901,-2388,796,-2587
4.902,-2139,696,-2438
4.903,-2040,447,-2488
4.904,-2438,696,-2538
4.905,-2239,547,-2289
4.906,-1940,447,-2538
4.907,-2189,547,-2388
4.908,-2338,696,-2488
4.909,-2189,796,-2139
4.910,-2289,348,-2538
4.911,-2189,497,-2338
4.912,-2239,846,-2637
4.913,-2488,547,-2488
4.914,-2388,696,-2488
4.915,-1891,696,-2637
4.916,-2388,547,-2388
4.917,-2388,696,-2587
4.918,-2587,597,-2587
4.919,-2040,447,-2687
4.920,-2338,497,-2438
4.921,-2040,646,-2388
4.922,-2239,945,-2587
4.923,-2289,547,-2538
4.924,-2488,746,-2438
4.925,-2090,646,-2438
4.926,-2388,796,-2338
4.927,-2139,398,-2289
4.928,-2438,447,-2637
4.929,-2438,547,-2338
4.930,-2139,796,-2438
4.931,-1990,846,-2637
4.932,-2239,597,-2388
4.933,-2438,646,-2538
4.934,-2289,696,-2538
4.935,-2338,597,-2338
4.936,-2338,696,-2637
4.937,-2189,447,-2687
4.938,-2338,447,-2687
4.939,-2289,846,-2438
4.940,-2139,696,-2438
4.941,-2189,497,-2637
4.942,-2438,846,-2438
4.943,-2139,646,-2388
4.944,-2289,696,-2338
4.945,-2338,547,-2289
4.946,-2090,447,-2388
4.947,-2139,796,-2289
4.948,-2239,597,-2239
4.949,-2139,746,-2637
4.950,-2538,597,-2587
4.951,-2338,597,-2289
4.952,-2090,447,-2289
4.953,-2239,597,-2438
4.954,-2189,597,-2289
4.955,-2139,447,-2438
4.956,-2239,497,-2388
4.957,-2338,696,-2388
4.958,-2090,796,-2338
4.959,-2189,895,-2488
4.960,-2538,348,-2538
4.961,-2139,497,-2687
4.962,-2189,447,-2139
4.963,-2239,547,-2488
4.964,-2388,398,-2388
4.965,-2488,597,-2538
4.966,-2189,597,-2388
4.967,-2388,646,-2338
4.968,-2388,547,-2538
4.969,-2239,447,-2488
4.970,-2338,646,-2239
4.971,-2338,497,-2488
4.972,-2289,497,-2388
4.973,-2388,746,-2438
4.974,-2139,348,-2538
4.975,-2239,597,-2388
4.976,-1990,447,-2388
4.977,-2040,547,-2239
4.978,-2189,597,-1990
4.979,-2239,646,-2488
4.980,-2090,796,-2388
4.981,-2090,248,-2538
4.982,-2289,696,-2289
4.983,-2239,696,-2338
4.984,-2189,646,-2239
4.985,-2289,199,-2687
4.986,-2090,696,-2289
4.987,-1990,597,-2488
4.988,-2438,248,-2338
4.989,-2587,597,-2189
4.990,-2189,746,-2338
4.991,-2289,846,-2338
4.992,-2538,796,-2139
4.993,-2438,447,-2687
4.994,-2388,646,-2587
4.995,-2289,348,-2438
4.996,-2637,696,-2239
4.997,-2289,696,-2438
4.998,-2040,398,-2488
4.999,-2189,298,-2338
5.000,-2239,846,-2538
5.001,-1891,447,-2338
5.002,-2139,597,-2388
5.003,-2139,298,-2587
5.004,-2090,846,-2637
5.005,-2289,497,-2239
5.006,-2438,398,-2338
5.007,-2139,447,-2189
5.008,-2040,846,-2438
5.009,-2189,547,-2338
5.010,-1990,547,-2587
5.011,-2239,597,-2289
5.012,-2338,398,-2338
5.013,-2338,248,-2239
5.014,-2388,547,-2239
5.015,-2090,646,-2438
5.016,-2139,597,-2637
5.017,-2289,597,-2239
5.018,-2090,199,-2438
5.019,-2189,895,-2189
5.020,-2289,597,-2488
5.021,-2040,696,-2538
5.022,-2289,646,-2488
5.023,-2289,646,-2737
5.024,-2139,447,-2786
5.025,-2040,597,-2189
5.026,-1940,597,-2189
5.027,-2090,547,-2438
5.028,-2090,846,-2438
5.029,-2338,447,-2388
5.030,-2239,447,-2438
5.031,-2239,696,-2587
5.032,-1940,746,-2289
5.033,-1891,547,-2438
5.034,-2040,547,-2289
5.035,-2289,646,-2239
5.036,-1990,597,-2289
5.037,-2090,646,-2189
5.038,-2090,597,-2438
5.039,-2040,547,-2488
5.040,-2139,298,-2239
5.041,-2239,447,-2488
5.042,-2090,646,-2388
5.043,-1940,298,-1990
5.044,-2189,398,-2388
5.045,-2289,597,-2587
5.046,-2239,348,-2289
5.047,-2139,796,-2438
5.048,-2189,497,-2587
5.049,-2438,696,-2289
5.050,-2139,447,-2538
5.051,-2388,497,-2239
5.052,-2338,846,-2538
5.053,-2189,696,-2388
5.054,-2189,398,-2488
5.055,-2090,447,-2488
5.056,-2139,646,-2538
5.057,-2289,696,-2239
5.058,-2239,796,-2388
5.059,-2139,895,-2438
5.060,-2090,646,-2637
5.061,-2090,398,-2388
5.062,-2338,696,-2438
5.063,-2189,646,-2737
5.064,-2338,447,-2388
5.065,-2189,646,-2239
5.066,-2289,895,-2189
5.067,-2139,746,-2438
5.068,-2040,597,-2338
5.069,-2189,696,-2438
5.070,-2338,547,-2338
5.071,-2388,597,-2637
5.072,-2040,646,-2488
5.073,-2488,696,-2189
5.074,-2488,348,-2587
5.075,-2289,846,-2538
5.076,-2239,597,-2687
5.077,-2338,447,-2338
5.078,-2289,646,-2687
5.079,-2139,646,-2587
5.080,-2090,398,-2388
5.081,-2139,796,-2438
5.082,-2139,547,-2239
5.083,-2338,497,-2289
5.084,-2239,746,-2637
5.085,-2239,547,-2388
5.086,-2139,547,-2338
5.087,-2388,398,-2538
5.088,-2139,497,-2587
5.089,-2239,746,-2338
5.090,-2388,447,-2438
5.091,-1990,646,-2388
5.092,-2289,348,-2637
5.093,-1891,597,-2289
5.094,-2239,945,-2488
5.095,-2289,746,-2587
5.096,-2338,746,-2538
5.097,-2239,646,-2538
5.098,-2338,447,-2388
5.099,-2090,398,-2040
5.100,-2189,298,-2338
5.101,-2239,646,-2587
5.102,-2090,696,-2338
5.103,-2189,447,-2338
5.104,-2139,547,-2438
5.105,-1891,746,-2538
5.106,-2289,846,-2488
5.107,-2289,298,-2438
5.108,-2587,696,-2538
5.109,-2189,298,-2936
5.110,-1990,497,-2488
5.111,-2289,846,-2587
5.112,-2388,796,-2438
5.113,-1791,547,-2338
5.114,-1940,199,-2338
5.115,-2289,696,-2388
5.116,-2189,646,-2338
5.117,-2189,597,-2289
5.118,-1841,497,-2338
5.119,-2040,597,-2189
5.120,-1990,746,-2388
5.121,-2338,497,-2538
5.122,-2338,199,-2338
5.123,-2289,547,-2388
5.124,-2139,796,-2239
5.125,-2189,398,-2239
5.126,-1940,547,-2438
5.127,-2289,597,-2786
5.128,-2438,497,-2388
5.129,-1841,547,-2587
5.130,-2289,696,-2189
5.131,-2538,497,-2239
5.132,-2090,248,-2239
5.133,-2189,348,-2338
5.134,-2189,646,-2388
5.135,-1990,199,-2239
5.136,-1891,497,-2587
5.137,-2040,597,-2488
5.138,-1990,597,-2488
5.139,-2338,696,-2139
5.140,-2289,447,-2488
5.141,-2338,398,-2388
5.142,-2040,398,-2239
5.143,-2090,547,-2388
5.144,-2538,995,-2587
5.145,-1990,497,-2488
5.146,-2239,497,-2338
5.147,-2090,298,-2338
5.148,-2139,447,-2040
5.149,-1841,696,-2189
5.150,-2239,646,-2139
5.151,-2289,398,-2338
5.152,-2289,597,-2637
5.153,-2090,796,-2538
5.154,-2139,348,-2488
5.155,-2090,696,-2239
5.156,-2338,746,-2438
5.157,-2090,746,-2338
5.158,-1940,298,-2189
5.159,-2289,497,-2338
5.160,-2189,895,-2388
5.161,-1990,696,-2338
5.162,-2438,646,-2438
5.163,-2189,746,-2239
5.164,-2189,646,-2488
5.165,-1741,846,-2189
5.166,-2438,497,-2388
5.167,-1990,447,-2587
5.168,-2040,497,-2040
5.169,-2388,547,-2239
5.170,-2040,497,-2289
5.171,-1940,447,-2189
5.172,-1990,597,-2338
5.173,-2388,547,-2040
5.174,-2090,696,-2239
5.175,-1692,696,-2338
5.176,-2139,547,-2338
5.177,-2189,447,-2040
5.178,-2239,497,-2488
5.179,-2338,447,-2338
5.180,-2040,348,-2538
5.181,-2189,149,-2338
5.182,-1990,746,-2289
5.183,-2289,398,-2488
5.184,-2139,995,-2239
5.185,-2189,298,-2438
5.186,-2239,497,-2289
5.187,-1741,547,-2587
5.188,-2139,646,-2488
5.189,-2139,746,-2239
5.190,-1841,348,-2338
5.191,-2338,547,-2438
5.192,-2239,597,-2139
5.193,-2090,497,-2587
5.194,-1990,547,-2338
5.195,-2239,447,-2388
5.196,-2438,746,-2388
5.197,-2090,646,-2189
5.198,-1940,597,-2289
5.199,-2040,298,-2438
5.200,-2040,248,-2090
5.201,-2289,696,-2338
5.202,-2338,796,-2438
5.203,-2189,646,-2488
5.204,-2139,348,-2388
5.205,-1940,547,-2139
5.206,-2139,447,-2189
5.207,-1990,597,-2239
5.208,-2040,447,-2438
5.209,-1990,646,-2438
5.210,-2139,646,-2139
5.211,-2040,696,-2438
5.212,-2090,646,-2289
5.213,-2139,547,-2388
5.214,-2338,398,-2388
5.215,-2189,547,-2189
5.216,-2040,597,-2139
5.217,-2189,348,-2388
5.218,-2189,597,-2189
5.219,-1841,696,-2388
5.220,-2090,597,-2189
5.221,-1940,398,-2338
5.222,-2139,547,-2239
5.223,-1990,597,-2090
5.224,-2040,696,-2438
5.225,-1990,597,-2289
5.226,-1990,199,-2538
5.227,-2090,597,-2587
5.228,-2139,348,-2388
5.229,-1692,597,-2438
5.230,-2139,398,-2189
5.231,-2040,547,-2438
5.232,-2239,646,-2388
5.233,-1990,447,-2388
5.234,-2040,547,-2289
5.235,-2189,348,-2338
5.236,-2239,646,-2139
5.237,-2139,547,-2289
5.238,-2239,348,-2438
5.239,-2289,746,-2687
5.240,-2189,646,-2338
5.241,-2338,646,-2239
5.242,-1940,398,-2239
5.243,-2189,398,-2438
5.244,-2388,298,-2388
5.245,-2189,497,-2338
5.246,-2338,298,-2289
5.247,-2040,99,-2239
5.248,-2388,597,-2338
5.249,-2239,696,-2438
5.250,-2139,547,-2189
5.251,-2139,199,-2438
5.252,-1940,696,-2289
5.253,-1940,646,-2189
5.254,-2239,497,-2488
5.255,-2289,447,-2189
5.256,-2090,447,-2338
5.257,-1940,398,-2538
5.258,-2040,497,-2538
5.259,-2090,497,-2438
5.260,-2139,597,-2139
5.261,-2090,547,-2388
5.262,-2189,796,-2139
5.263,-2090,497,-2139
5.264,-2139,497,-2040
5.265,-2040,646,-2388
5.266,-2040,696,-2388
5.267,-2090,447,-2836
5.268,-1940,547,-2637
5.269,-1940,398,-2239
5.270,-2139,547,-2438
5.271,-2239,547,-2388
5.272,-2289,646,-2488
5.273,-2139,646,-1891
5.274,-1940,547,-2139
5.275,-2239,398,-2239
5.276,-2139,746,-2139
5.277,-1891,547,-2040
5.278,-2090,298,-2438
5.279,-2239,497,-2189
5.280,-2040,398,-2388
5.281,-2289,547,-2338
5.282,-2139,447,-2438
5.283,-2189,497,-2438
5.284,-2189,497,-2239
5.285,-2040,646,-2438
5.286,-1990,49,-2189
5.287,-1891,497,-2239
5.288,-2189,447,-2239
5.289,-2289,248,-1891
5.290,-1990,597,-2438
5.291,-2139,447,-2289
5.292,-1891,248,-2239
5.293,-1990,547,-2090
5.294,-2090,447,-2289
5.295,-1891,497,-2239
5.296,-2289,298,-2289
5.297,-2040,447,-2139
5.298,-2040,447,-2538
5.299,-2040,547,-2239
5.300,-2090,398,-2139
5.301,-2040,547,-2338
5.302,-1940,398,-2189
5.303,-2139,447,-2338
5.304,-1891,497,-2338
5.305,-2189,796,-2239
5.306,-2289,846,-2488
5.307,-2090,497,-2239
5.308,-2139,696,-2040
5.309,-2388,398,-2438
5.310,-2139,348,-2090
5.311,-2040,447,-2388
5.312,-2239,547,-2488
5.313,-2040,547,-2289
5.314,-1841,447,-2239
5.315,-2040,696,-2388
5.316,-1940,497,-2139
5.317,-1841,547,-2338
5.318,-2040,597,-2438
5.319,-2239,447,-2488
5.320,-1990,597,-2139
5.321,-2189,497,-2289
5.322,-2189,199,-2189
5.323,-2040,298,-2289
5.324,-2388,398,-2239
5.325,-1940,597,-2388
5.326,-1990,846,-2189
5.327,-2189,646,-2239
5.328,-2040,497,-2388
5.329,-1990,597,-2388
5.330,-2040,746,-2239
5.331,-1841,646,-2090
5.332,-1990,646,-2189
5.333,-1841,646,-2289
5.334,-2090,447,-2338
5.335,-2040,298,-2239
5.336,-2040,497,-2090
5.337,-2139,646,-2488
5.338,-2040,497,-2388
5.339,-1990,547,-2139
5.340,-2139,547,-2189
5.341,-2040,846,-2388
5.342,-1791,398,-2090
5.343,-2239,597,-2139
5.344,-1990,447,-2189
5.345,-1891,447,-2289
5.346,-2139,348,-2239
5.347,-2438,447,-1791
5.348,-2438,646,-2239
5.349,-2090,398,-2538
5.350,-2189,547,-2090
5.351,-2139,447,-2189
5.352,-2289,348,-2139
5.353,-2040,547,-2189
5.354,-2090,547,-2488
5.355,-2040,497,-2239
5.356,-2040,447,-2239
5.357,-1841,547,-2488
5.358,-2239,497,-2239
5.359,-2040,696,-2139
5.360,-1891,348,-2438
5.361,-2090,348,-2388
5.362,-1791,646,-2289
5.363,-1990,497,-1990
5.364,-2239,248,-1990
5.365,-1940,248,-2239
5.366,-1990,348,-2090
5.367,-2239,447,-2488
5.368,-1891,99,-2388
5.369,-1990,348,-2239
5.370,-1990,348,-2338
5.371,-2090,547,-2388
5.372,-2338,846,-2338
5.373,-2040,597,-2388
5.374,-2090,547,-1940
5.375,-1940,447,-2438
5.376,-2438,547,-2139
5.377,-2189,447,-2239
5.378,-2538,547,-2289
5.379,-2139,497,-2090
5.380,-1891,547,-2338
5.381,-1990,547,-2587
5.382,-2040,597,-2239
5.383,-1990,447,-2538
5.384,-1990,447,-2338
5.385,-2090,447,-2338
5.386,-1940,447,-2338
5.387,-1940,497,-2289
5.388,-2139,447,-2189
5.389,-2090,497,-2189
5.390,-1990,646,-2438
5.391,-1990,348,-2239
5.392,-2189,248,-2239
5.393,-1891,646,-2289
5.394,-1940,497,-2388
5.395,-2090,398,-2488
5.396,-2289,199,-2438
5.397,-1940,398,-2090
5.398,-1891,199,-2239
5.399,-1841,597,-2139
5.400,-1940,646,-2289
5.401,-1791,447,-2239
5.402,-2090,597,-2189
5.403,-1940,497,-2239
5.404,-1791,398,-2189
5.405,-2040,497,-2139
5.406,-2139,398,-2139
5.407,-2289,597,-2538
5.408,-2139,298,-2338
5.409,-2189,696,-2189
5.410,-2139,348,-2338
5.411,-1940,597,-2289
5.412,-2289,497,-2189
5.413,-2040,597,-2388
5.414,-2090,447,-2438
5.415,-1990,99,-2239
5.416,-1990,199,-2189
5.417,-2189,447,-2289
5.418,-1990,646,-2438
5.419,-2040,199,-1940
5.420,-2189,646,-2040
5.421,-1990,348,-2289
5.422,-1891,298,-2090
5.423,-2040,646,-2239
5.424,-2090,696,-2289
5.425,-2189,696,-2090
5.426,-1990,497,-2139
5.427,-1990,547,-1940
5.428,-1642,597,-2239
5.429,-2338,398,-2189
5.430,-2189,398,-1940
