timstamp,accel_x,accel_y,accel_z
0,-298,-796,-348
0.001,-497,-646,-497
0.002,-49,-696,-298
0.003,398,-796,447
0.004,646,-1144,547
0.005,1492,-1692,895
0.006,1791,-1940,1293
0.007,2289,-2040,1343
0.008,2488,-2637,1791
0.009000000000000001,3284,-2737,2139
0.01,3384,-3384,2637
0.011,3981,-3433,2687
0.012,4279,-3931,3135
0.013000000000000001,4877,-3931,3583
0.014,5275,-4429,3981
0.015,5723,-4329,4080
0.016,6320,-5076,4677
0.017,6718,-5225,4976
0.018000000000000002,7116,-5772,5374
0.019,7116,-5822,5723
0.02,7116,-6419,6369
0.021,7116,-6270,6519
0.022,7116,-6220,6569
0.023,7116,-6519,5872
0.024,7116,-6369,5971
0.025,7116,-6618,6170
0.026000000000000002,7116,-6419,6071
0.027,7116,-6270,6071
0.028,7116,-6270,6121
0.029,7116,-6469,6170
0.03,7116,-6220,6071
0.031,7116,-6021,6121
0.032,7116,-6220,6021
0.033,7116,-6071,6071
0.034,7116,-6320,5822
0.035,7116,-6220,5971
0.036000000000000004,7116,-6021,5772
0.037,7116,-6121,6021
0.038,7116,-6220,6021
0.039,7116,-6021,5971
0.04,7116,-6071,5971
0.041,7116,-6071,5723
0.042,7116,-5673,6121
0.043000000000000003,7116,-6071,5623
0.044,7116,-5872,5922
0.045,7116,-6071,5723
0.046,7116,-6170,5872
0.047,7116,-5872,5822
0.048,7116,-6121,6021
0.049,7116,-5922,5673
0.05,7116,-6071,5523
0.051000000000000004,7116,-6071,6021
0.052000000000000005,7116,-5872,5772
0.053,7116,-5772,5523
0.054,7116,-5723,5723
0.055,7116,-5971,5822
0.056,7116,-6021,5623
0.057,7116,-5922,5623
0.058,7116,-5922,5723
0.059000000000000004,7116,-5822,5822
0.06,7116,-5922,5623
0.061,7116,-6021,5573
0.062,7116,-5822,5573
0.063,7116,-5872,5623
0.064,7116,-6071,5872
0.065,7116,-6021,5723
0.066,7116,-5922,5523
0.067,7116,-5474,5772
0.068,7116,-5971,5673
0.069,7116,-5723,5623
0.07,7116,-5922,5573
0.07100000000000001,7116,-5971,5723
0.07200000000000001,7116,-5772,5673
0.073,7116,-5971,5723
0.074,7116,-6071,5971
0.075,7116,-5772,5723
0.076,7116,-5822,5623
0.077,7116,-6071,5673
0.078,7116,-6021,5772
0.079,7116,-6071,5673
0.08,7116,-5971,5474
0.081,7116,-6021,5673
0.082,7116,-5922,5723
0.083,7116,-5772,5474
0.084,7116,-6071,5673
0.085,7116,-6121,5523
0.08600000000000001,7116,-6071,5573
0.08700000000000001,7116,-5772,5822
0.088,7116,-6369,5474
0.089,7116,-5872,5872
0.09,7116,-5872,5474
0.091,7116,-5971,5673
0.092,7116,-5822,5872
0.093,7116,-6071,5623
0.094,7116,-5971,5474
0.095,7116,-5872,5822
0.096,7116,-6071,5573
0.097,7116,-5822,5573
0.098,7116,-5822,5523
0.099,7116,-6021,5723
0.1,7116,-5822,5424
0.101,7116,-5772,5673
0.10200000000000001,7116,-6021,5573
0.10300000000000001,7116,-6121,5424
0.10400000000000001,7116,-5922,5723
0.105,7116,-6220,5623
0.106,7116,-5723,5623
0.107,7116,-5971,5673
0.108,7116,-6270,5772
0.109,7116,-6170,5922
0.11,7116,-5822,5673
0.111,7116,-5723,5324
0.112,7116,-5822,5623
0.113,7116,-5772,5623
0.114,7116,-5922,5275
0.115,7116,-5922,5673
0.116,7116,-5872,5523
0.117,7116,-5723,5822
0.11800000000000001,7116,-5822,5374
0.11900000000000001,7116,-5971,5424
0.12,7116,-5971,5872
0.121,7116,-5772,5673
0.122,7116,-6021,5872
0.123,7116,-5723,5623
0.124,7116,-5772,5573
0.125,7116,-5922,5573
0.126,7116,-6021,5872
0.127,7116,-5872,5822
0.128,7116,-6021,5822
0.129,7116,-5922,5772
0.13,7116,-5971,5673
0.131,7116,-6170,5872
0.132,7116,-6121,5822
0.133,7116,-5971,5872
0.134,7116,-5971,5474
0.135,7116,-5971,6021
0.136,7116,-6220,5723
0.137,7116,-5872,5723
0.138,7116,-6021,6071
0.139,7116,-5623,5623
0.14,7116,-6220,5822
0.14100000000000001,7116,-5872,5573
0.14200000000000002,7116,-5971,5772
0.14300000000000002,7116,-5971,5872
0.14400000000000002,7116,-6170,5723
0.145,7116,-6121,5772
0.146,7116,-5922,5772
0.147,7116,-5922,5673
0.148,7116,-5872,5673
0.149,7116,-6170,5822
0.15,7116,-6071,5872
0.151,7116,-6170,5723
0.152,7116,-6220,5822
0.153,7116,-5822,5673
0.154,7116,-6270,6021
0.155,7116,-5922,5723
0.156,7116,-6021,5872
0.157,7116,-6021,5822
0.158,7116,-5872,5523
0.159,7116,-5872,5723
0.16,7116,-5971,5872
0.161,7116,-6071,5822
0.162,7116,-5872,5922
0.163,7116,-6170,5872
0.164,7116,-6021,5822
0.165,7116,-6021,5523
0.166,7116,-5971,5772
0.167,7116,-6021,5922
0.168,7116,-5872,5523
0.169,7116,-5971,5872
0.17,7116,-5971,5623
0.171,7116,-6170,5872
0.17200000000000001,7116,-5971,5872
0.17300000000000001,7116,-6220,5971
0.17400000000000002,7116,-5971,6121
0.17500000000000002,7116,-6021,5673
0.176,7116,-6121,5872
0.177,7116,-6071,5971
0.178,7116,-5971,5872
0.179,7116,-6220,5623
0.18,7116,-5922,5673
0.181,7116,-6220,5723
0.182,7116,-6170,5772
0.183,7116,-6021,5971
0.184,7116,-5872,5673
0.185,7116,-6270,5673
0.186,7116,-5872,5922
0.187,7116,-5772,5971
0.188,7116,-5971,5772
0.189,7116,-6071,5872
0.19,7116,-6170,5772
0.191,7116,-5922,5822
0.192,7116,-6071,5623
0.193,7116,-6170,6021
0.194,7116,-6021,5971
0.195,7116,-6071,5673
0.196,7116,-6170,5971
0.197,7116,-5872,5523
0.198,7116,-6469,5971
0.199,7116,-6320,5623
0.2,7116,-6170,5822
0.201,7116,-5872,5971
0.202,7116,-6170,5673
0.203,7116,-5922,6071
0.20400000000000001,7116,-6320,5772
0.20500000000000002,7116,-5872,5772
0.20600000000000002,7116,-6121,5872
0.20700000000000002,7116,-6170,5673
0.20800000000000002,7116,-6071,6071
0.209,7116,-6121,5623
0.21,7116,-6220,5673
0.211,7116,-6320,5922
0.212,7116,-6369,5623
0.213,7116,-6270,5623
0.214,7116,-5971,5573
0.215,7116,-6220,5971
0.216,7116,-6170,5971
0.217,7116,-5971,5673
0.218,7116,-6121,5922
0.219,7116,-6021,5872
0.22,7116,-6021,5723
0.221,7116,-5872,6121
0.222,7116,-6419,6021
0.223,7116,-6369,5723
0.224,7116,-6220,5922
0.225,7116,-6071,5872
0.226,7116,-5872,5872
0.227,7116,-6021,6170
0.228,7116,-5922,6021
0.229,7116,-5822,5723
0.23,7116,-6320,5723
0.231,7116,-6220,5922
0.232,7116,-5872,6071
0.233,7116,-5922,5872
0.234,7116,-6369,5822
0.23500000000000001,7116,-6071,6170
0.23600000000000002,7116,-6021,5922
0.23700000000000002,7116,-6469,5971
0.23800000000000002,7116,-6071,5872
0.23900000000000002,7116,-6170,5822
0.24,7116,-6270,5971
0.241,7116,-6419,5971
0.242,7116,-6270,6121
0.243,7116,-6320,6121
0.244,7116,-5922,5822
0.245,7116,-6369,6021
0.246,7116,-6419,6071
0.247,7116,-6220,5971
0.248,7116,-6021,6369
0.249,7116,-6369,5922
0.25,7116,-6320,6121
0.251,7116,-6170,6021
0.252,7116,-6170,5872
0.253,7116,-6220,5673
0.254,7116,-6320,6220
0.255,7116,-6071,5922
0.256,7116,-6170,6121
0.257,7116,-6021,5872
0.258,7116,-6220,5723
0.259,7116,-6170,5922
0.26,7116,-6419,6021
0.261,7116,-5922,6071
0.262,7116,-5971,6071
0.263,7116,-6170,6270
0.264,7116,-6220,5922
0.265,7116,-6220,5922
0.266,7116,-6121,6170
0.267,7116,-6021,6021
0.268,7116,-6270,6121
0.269,7116,-6170,6220
0.27,7116,-6270,6469
0.271,7116,-6270,6220
0.272,7116,-6121,5872
0.273,7116,-6419,5922
0.274,7116,-5922,6170
0.275,7116,-6071,6021
0.276,7116,-6469,6270
0.277,7116,-6071,5872
0.278,7116,-6170,5872
0.279,7116,-6270,6270
0.28,7116,-6021,6121
0.281,7116,-6270,6220
0.28200000000000003,7116,-6369,6121
0.28300000000000003,7116,-6320,5922
0.28400000000000003,7116,-6369,5922
0.28500000000000003,7116,-6270,6220
0.28600000000000003,7116,-6220,5872
0.28700000000000003,7116,-6369,6021
0.28800000000000003,7116,-6121,6071
0.289,7116,-5922,6021
0.29,7116,-6419,5822
0.291,7116,-6369,6121
0.292,7116,-6320,6220
0.293,7116,-6170,5971
0.294,7116,-6419,5822
0.295,7116,-6369,6170
0.296,7116,-6320,6071
0.297,7116,-6270,6170
0.298,7116,-6569,6419
0.299,7116,-6320,6220
0.3,7116,-6270,6320
0.301,7116,-6220,6170
0.302,7116,-6170,6220
0.303,7116,-6320,6170
0.304,7116,-6469,6121
0.305,7116,-6170,6121
0.306,7116,-6270,6220
0.307,7116,-6320,5922
0.308,7116,-5971,6220
0.309,7116,-6121,6021
0.31,7116,-6170,6220
0.311,7116,-6270,6170
0.312,7116,-6419,5971
0.313,7116,-6320,6121
0.314,7116,-6469,6270
0.315,7116,-6419,6121
0.316,7116,-6469,6220
0.317,7116,-6220,6270
0.318,7116,-6419,6369
0.319,7116,-6519,6220
0.32,7116,-6220,6320
0.321,7116,-6270,6071
0.322,7116,-6369,6071
0.323,7116,-6170,6320
0.324,7116,-6071,6270
0.325,7116,-6369,6170
0.326,7116,-6519,5822
0.327,7116,-6270,6071
0.328,7116,-6270,6170
0.329,7116,-6121,6170
0.33,7116,-6419,6419
0.331,7116,-6170,6270
0.332,7116,-6270,6469
0.333,7116,-6320,6270
0.334,7116,-6320,6121
0.335,7116,-6569,6320
0.336,7116,-6469,6170
0.337,7116,-6320,6320
0.338,7116,-6419,6220
0.339,7116,-6469,6270
0.34,7116,-6320,6170
0.341,7116,-6220,6220
0.342,7116,-6220,6369
0.343,7116,-6270,5872
0.34400000000000003,7116,-6519,6121
0.34500000000000003,7116,-6170,6618
0.34600000000000003,7116,-6369,6071
0.34700000000000003,7116,-6419,6469
0.34800000000000003,7116,-6320,6469
0.34900000000000003,7116,-6220,6121
0.35000000000000003,7116,-6569,6170
0.35100000000000003,7116,-6369,6519
0.352,7116,-6320,6220
0.353,7116,-6419,6270
0.354,7116,-6469,5922
0.355,7116,-6569,6021
0.356,7116,-6320,6121
0.357,7116,-6369,6419
0.358,7116,-6618,6121
0.359,7116,-6369,6320
0.36,7116,-6469,6419
0.361,7116,-6469,6569
0.362,7116,-6320,6419
0.363,7116,-6469,6220
0.364,7116,-6320,6320
0.365,7116,-6419,6170
0.366,7116,-6071,6369
0.367,7116,-6320,6419
0.368,7116,-6469,6220
0.369,7116,-6320,6369
0.37,7116,-6419,6369
0.371,7116,-6320,6071
0.372,7116,-6419,6469
0.373,7116,-6369,6220
0.374,7116,-6618,6170
0.375,7116,-6270,6121
0.376,7116,-6320,6369
0.377,7116,-6419,6270
0.378,7116,-6170,6369
0.379,7116,-6469,6469
0.38,7116,-6519,6419
0.381,7116,-6320,6320
0.382,7116,-6220,6369
0.383,7116,-6369,6569
0.384,7116,-6369,6021
0.385,7116,-5922,6170
0.386,7116,-6469,6320
0.387,7116,-6469,6668
0.388,7116,-6569,6668
0.389,7116,-6170,6419
0.39,7116,-6569,6220
0.391,7116,-6469,6419
0.392,7116,-6469,6419
0.393,7116,-6220,6320
0.394,7116,-6270,6021
0.395,7116,-6320,6419
0.396,7116,-6220,6220
0.397,7116,-6569,6519
0.398,7116,-6320,6469
0.399,7116,-6419,6320
0.4,7116,-6519,6369
0.401,7116,-6320,6369
0.402,7116,-6519,6270
0.403,7116,-6519,6469
0.404,7116,-6320,6618
0.405,7116,-6618,6320
0.406,7116,-6369,6320
0.40700000000000003,7116,-6419,6419
0.40800000000000003,7116,-6320,6519
0.40900000000000003,7116,-6668,6220
0.41000000000000003,7116,-6668,6419
0.41100000000000003,7116,-6618,6320
0.41200000000000003,7116,-6071,6320
0.41300000000000003,7116,-6469,6618
0.41400000000000003,7116,-6618,6718
0.41500000000000004,7116,-6071,6369
0.41600000000000004,7116,-6668,6320
0.417,7116,-6718,6320
0.418,7116,-6519,6519
0.419,7116,-6369,6170
0.42,7116,-6469,6369
0.421,7116,-6369,6419
0.422,7116,-6519,6469
0.423,7116,-6320,6469
0.424,7116,-6618,6668
0.425,7116,-6569,6519
0.426,7116,-6569,6469
0.427,7116,-6270,6320
0.428,7116,-6469,6369
0.429,7116,-6519,6469
0.43,7116,-6817,6369
0.431,7116,-6569,6569
0.432,7116,-6469,6668
0.433,7116,-6768,6569
0.434,7116,-6369,6569
0.435,7116,-6519,6817
0.436,7116,-6768,6519
0.437,7116,-6718,6668
0.438,7116,-6469,6569
0.439,7116,-6718,6618
0.44,7116,-6320,6519
0.441,7116,-6569,6519
0.442,7116,-6469,6419
0.443,7116,-6569,6419
0.444,7116,-6469,6718
0.445,7116,-6668,6170
0.446,7116,-6718,6618
0.447,7116,-6369,6668
0.448,7116,-6618,6768
0.449,7116,-6519,6569
0.45,7116,-6718,6618
0.451,7116,-6618,6768
0.452,7116,-6469,6419
0.453,7116,-6718,6419
0.454,7116,-6618,6419
0.455,7116,-6369,6569
0.456,7116,-6469,6419
0.457,7116,-6569,6569
0.458,7116,-6817,6718
0.459,7116,-6618,6519
0.46,7116,-6618,6569
0.461,7116,-6469,6519
0.462,7116,-6867,6569
0.463,7116,-6718,6519
0.464,7116,-6867,6618
0.465,7116,-6320,6668
0.466,7116,-6569,6668
0.467,7116,-6718,6867
0.468,7116,-6519,6369
0.46900000000000003,7116,-6569,6618
0.47000000000000003,7116,-6469,7016
0.47100000000000003,7116,-6618,6817
0.47200000000000003,7116,-6369,6569
0.47300000000000003,7116,-6569,6618
0.47400000000000003,7116,-6668,6668
0.47500000000000003,7116,-6618,6768
0.47600000000000003,7116,-6569,6668
0.47700000000000004,7116,-6320,6519
0.47800000000000004,7116,-6419,6469
0.47900000000000004,7116,-6867,6917
0.48,7116,-6369,6569
0.481,7116,-6270,6618
0.482,7116,-6369,6768
0.483,7116,-6369,6618
0.484,7116,-6519,6618
0.485,7116,-6569,6569
0.486,7116,-6718,6668
0.487,7116,-6369,6817
0.488,7116,-6369,6718
0.489,7116,-6618,6718
0.49,7116,-6469,6917
0.491,7116,-6618,6768
0.492,7116,-6519,6668
0.493,7116,-7016,6768
0.494,7116,-6668,6867
0.495,7116,-6618,7066
0.496,7116,-6320,6718
0.497,7116,-6569,6469
0.498,7116,-6320,6917
0.499,7116,-6668,6967
0.5,7116,-6519,6817
0.501,7116,-6519,6519
0.502,7116,-6618,6668
0.503,7116,-6419,6618
0.504,7116,-6718,6917
0.505,7116,-6867,6768
0.506,7116,-6718,6618
0.507,7116,-6369,6867
0.508,7116,-6519,6967
0.509,7116,-6369,6867
0.51,7116,-6419,6369
0.511,7116,-6718,6618
0.512,7116,-6519,7116
0.513,7116,-6320,6768
0.514,7116,-6519,6817
0.515,7116,-6718,6768
0.516,7116,-6668,6917
0.517,7116,-6618,7116
0.518,7116,-6569,6718
0.519,7116,-7016,7016
0.52,7116,-6668,6917
0.521,7116,-6618,7066
0.522,7116,-6668,6967
0.523,7116,-6469,6967
0.524,7116,-6718,6967
0.525,7116,-6519,7016
0.526,7116,-6469,6718
0.527,7116,-6569,6817
0.528,7116,-6569,6867
0.529,7116,-6320,6618
0.53,7116,-6668,6817
0.531,7116,-6668,7116
0.532,7116,-6668,6967
0.533,7116,-6668,6817
0.534,7116,-6569,6917
0.535,7116,-6867,7016
0.536,7116,-6768,7116
0.537,7116,-6469,7016
0.538,7116,-6569,6768
0.539,7116,-6668,7016
0.54,7116,-6469,6668
0.541,7116,-6718,6817
0.542,7116,-6618,6817
0.543,7116,-6369,6917
0.544,7116,-6519,6867
0.545,7116,-6469,6967
0.546,7116,-6718,6668
0.547,7116,-6668,7116
0.548,7116,-6519,6867
0.549,7116,-6817,7116
0.55,7116,-6917,6917
0.551,7116,-6867,7116
0.552,7116,-6768,6967
0.553,7116,-6718,6718
0.554,7116,-6369,7016
0.555,7116,-6668,6867
0.556,7116,-6469,6917
0.557,7116,-6718,6718
0.558,7116,-6569,7066
0.559,7116,-6569,7116
0.56,7116,-6817,6917
0.561,7116,-6768,7016
0.562,7116,-6668,7016
0.5630000000000001,7116,-6469,6817
0.5640000000000001,7116,-6569,6768
0.5650000000000001,7116,-6618,6967
0.5660000000000001,7116,-7016,6967
0.5670000000000001,7116,-6618,6917
0.5680000000000001,7116,-6618,7116
0.5690000000000001,7116,-6569,6917
0.5700000000000001,7116,-6618,7116
0.5710000000000001,7116,-7016,7116
0.5720000000000001,7116,-6668,7066
0.5730000000000001,7116,-6668,7116
0.5740000000000001,7116,-6718,7116
0.5750000000000001,7116,-6618,7016
0.5760000000000001,7116,-6569,7016
0.577,7116,-6768,7116
0.578,7116,-6718,7116
0.579,7116,-6867,7116
0.58,7116,-7016,7116
0.581,7116,-6668,6867
0.582,7116,-6817,7066
0.583,7116,-6917,7116
0.584,7116,-6718,7066
0.585,7116,-6668,6768
0.586,7116,-6668,7116
0.587,7116,-6768,7066
0.588,7116,-6867,7116
0.589,7116,-6419,7116
0.59,7116,-6569,7066
0.591,7116,-6768,7066
0.592,7116,-6569,6917
0.593,7116,-6967,7116
0.594,7116,-6618,7116
0.595,7116,-6867,6967
0.596,7116,-6618,7116
0.597,7116,-6718,7116
0.598,7116,-6320,7116
0.599,7116,-6718,7116
0.6,7116,-6867,7116
0.601,7116,-6469,7116
0.602,7116,-6917,7116
0.603,7116,-6419,7116
0.604,7116,-6519,7116
0.605,7116,-6718,7116
0.606,7116,-6569,7116
0.607,7116,-6768,7116
0.608,7116,-6618,6967
0.609,7116,-6419,7116
0.61,7116,-6867,7116
0.611,7116,-6867,7116
0.612,7116,-6768,7116
0.613,7116,-6718,7116
0.614,7116,-6718,7116
0.615,7116,-7016,7116
0.616,7116,-6170,7116
0.617,7116,-6718,7116
0.618,7116,-6768,7116
0.619,7116,-6817,7116
0.62,7116,-6817,7116
0.621,7116,-6768,7116
0.622,7116,-6817,7116
0.623,7116,-6569,7116
0.624,7116,-6569,7116
0.625,7116,-6419,7116
0.626,7116,-6668,7116
0.627,7116,-6817,7116
0.628,7116,-6668,7116
0.629,7116,-6718,7116
0.63,7116,-6917,7066
0.631,7116,-6469,7116
0.632,7116,-6867,7116
0.633,7116,-6768,7116
0.634,7116,-6768,7116
0.635,7116,-6519,7116
0.636,7116,-6718,7116
0.637,7116,-6419,7116
0.638,7116,-6618,7116
0.639,7116,-6817,7116
0.64,7116,-6569,7116
0.641,7116,-6668,7116
0.642,7116,-6668,7116
0.643,7116,-6867,7116
0.644,7116,-6569,7116
0.645,7116,-6519,7116
0.646,7116,-6519,7116
0.647,7116,-6817,7116
0.648,7116,-6618,7116
0.649,7116,-6419,7116
0.65,7116,-6768,7116
0.651,7116,-6817,7116
0.652,7116,-6668,7116
0.653,7116,-6817,7116
0.654,7116,-6768,7116
0.655,7116,-6718,7116
0.656,7116,-6618,7116
0.657,7116,-6718,7116
0.658,7116,-6718,7116
0.659,7116,-6618,7116
0.66,7116,-6469,7116
0.661,7116,-6867,7116
0.662,7116,-6867,7116
0.663,7116,-6668,7116
0.664,7116,-6718,7116
0.665,7116,-6867,7116
0.666,7116,-6867,7116
0.667,7116,-6668,7116
0.668,7116,-6768,7116
0.669,7116,-6917,7116
0.67,7116,-6867,7116
0.671,7116,-6768,7116
0.672,7116,-6519,7116
0.673,7116,-6618,7116
0.674,7116,-6768,7116
0.675,7116,-6618,7116
0.676,7116,-6618,7116
0.677,7116,-6817,7116
0.678,7116,-6569,7116
0.679,7116,-7066,7116
0.68,7116,-6618,7116
0.681,7116,-6817,7116
0.682,7116,-6768,7116
0.683,7116,-6867,7116
0.684,7116,-6668,7116
0.685,7116,-6967,7116
0.686,7116,-6867,7116
0.687,7116,-6768,7116
0.6880000000000001,7116,-6668,7116
0.6890000000000001,7116,-6668,7116
0.6900000000000001,7116,-6817,7116
0.6910000000000001,7116,-6817,7116
0.6920000000000001,7116,-6668,7116
0.6930000000000001,7116,-6768,7116
0.6940000000000001,7116,-6618,7116
0.6950000000000001,7116,-6967,7116
0.6960000000000001,7116,-7016,7116
0.6970000000000001,7116,-6768,7116
0.6980000000000001,7116,-6817,7116
0.6990000000000001,7116,-6917,7116
0.7000000000000001,7116,-6569,7116
0.7010000000000001,7116,-6768,7116
0.7020000000000001,7116,-6817,7116
0.7030000000000001,7116,-6867,7116
0.704,7116,-6668,7116
0.705,7116,-6569,7116
0.706,7116,-6917,7116
0.707,7116,-6668,7116
0.708,7116,-6768,7116
0.709,7116,-6817,7116
0.71,7116,-7016,7116
0.711,7116,-6718,7116
0.712,7116,-6817,7116
0.713,7116,-7016,7116
0.714,7116,-6817,7116
0.715,7116,-6967,7116
0.716,7116,-6519,7116
0.717,7116,-6768,7116
0.718,7116,-6967,7116
0.719,7116,-6718,7116
0.72,7116,-6867,7116
0.721,7116,-6718,7116
0.722,7116,-6718,7116
0.723,7116,-6768,7116
0.724,7116,-6668,7116
0.725,7116,-6967,7116
0.726,7116,-6817,7116
0.727,7116,-6718,7116
0.728,7116,-6817,7116
0.729,7116,-6917,7116
0.73,7116,-6718,7116
0.731,7116,-7116,7116
0.732,7116,-6618,7116
0.733,7116,-6618,7116
0.734,7116,-6817,7116
0.735,7116,-6668,7116
0.736,7116,-6967,7116
0.737,7116,-6618,7116
0.738,7116,-6668,7116
0.739,7116,-6718,7116
0.74,7116,-6569,7116
0.741,7116,-6768,7116
0.742,7116,-6817,7116
0.743,7116,-6569,7116
0.744,7116,-6817,7116
0.745,7116,-6967,7116
0.746,7116,-6817,7116
0.747,7116,-6668,7116
0.748,7116,-6817,7116
0.749,7116,-6618,7116
0.75,7116,-6867,7116
0.751,7116,-6668,7116
0.752,7116,-6768,7116
0.753,7116,-6419,7116
0.754,7116,-6668,7116
0.755,7116,-6668,7116
0.756,7116,-6867,7116
0.757,7116,-7016,7116
0.758,7116,-6768,7116
0.759,7116,-6718,7116
0.76,7116,-6668,7116
0.761,7116,-6618,7116
0.762,7116,-7116,7116
0.763,7116,-6768,7116
0.764,7116,-6917,7116
0.765,7116,-6718,7116
0.766,7116,-6718,7116
0.767,7116,-6867,7116
0.768,7116,-6618,7116
0.769,7116,-7066,7116
0.77,7116,-6718,7116
0.771,7116,-6817,7116
0.772,7116,-6618,7116
0.773,7116,-6718,7116
0.774,7116,-6718,7116
0.775,7116,-6668,7116
0.776,7116,-6817,7116
0.777,7116,-6817,7116
0.778,7116,-6817,7116
0.779,7116,-6768,7116
0.78,7116,-6867,7116
0.781,7116,-6967,7116
0.782,7116,-6867,7116
0.783,7116,-6867,7116
0.784,7116,-6817,7116
0.785,7116,-6569,7116
0.786,7116,-6618,7116
0.787,7116,-6867,7116
0.788,7116,-7016,7116
0.789,7116,-6469,7116
0.79,7116,-6867,7116
0.791,7116,-7116,7116
0.792,7116,-6967,7116
0.793,7116,-6668,7116
0.794,7116,-6967,7116
0.795,7116,-6718,7116
0.796,7116,-6917,7116
0.797,7116,-6569,7116
0.798,7116,-6967,7116
0.799,7116,-6817,7116
0.8,7116,-6569,7116
0.801,7116,-6419,7116
0.802,7116,-7066,7116
0.803,7116,-6867,7116
0.804,7116,-6917,7116
0.805,7116,-6768,7116
0.806,7116,-6867,7116
0.807,7116,-6519,7116
0.808,7116,-6967,7116
0.809,7116,-6917,7116
0.81,7116,-6768,7116
0.811,7116,-6469,7116
0.812,7116,-6967,7116
0.8130000000000001,7116,-6668,7116
0.8140000000000001,7116,-6867,7116
0.8150000000000001,7116,-6768,7116
0.8160000000000001,7116,-6768,7116
0.8170000000000001,7116,-6718,7116
0.8180000000000001,7116,-6917,7116
0.8190000000000001,7116,-6668,7116
0.8200000000000001,7116,-6817,7116
0.8210000000000001,7116,-7016,7116
0.8220000000000001,7116,-6817,7116
0.8230000000000001,7116,-6867,7116
0.8240000000000001,7116,-7116,7116
0.8250000000000001,7116,-6817,7116
0.8260000000000001,7116,-6917,7116
0.8270000000000001,7116,-6668,7116
0.8280000000000001,7116,-6817,7116
0.8290000000000001,7116,-6867,7116
0.8300000000000001,7116,-6668,7116
0.8310000000000001,7116,-6817,7116
0.8320000000000001,7116,-6917,7116
0.833,7116,-7016,7116
0.834,7116,-6867,7116
0.835,7116,-6967,7116
0.836,7116,-6967,7116
0.837,7116,-6917,7116
0.838,7116,-7016,7116
0.839,7116,-7016,7116
0.84,7116,-6718,7116
0.841,7116,-6917,7116
0.842,7116,-6867,7116
0.843,7116,-6768,7116
0.844,7116,-6917,7116
0.845,7116,-6768,7116
0.846,7116,-6718,7116
0.847,7116,-6469,7116
0.848,7116,-6817,7116
0.849,7116,-6867,7116
0.85,7116,-6618,7116
0.851,7116,-6867,7116
0.852,7116,-6768,7116
0.853,7116,-6867,7116
0.854,7116,-6917,7116
0.855,7116,-6917,7116
0.856,7116,-6718,7116
0.857,7116,-7066,7116
0.858,7116,-6718,7116
0.859,7116,-6768,7116
0.86,7116,-6768,7116
0.861,7116,-6768,7116
0.862,7116,-6917,7116
0.863,7116,-6618,7116
0.864,7116,-6768,7116
0.865,7116,-6967,7116
0.866,7116,-6618,7116
0.867,7116,-6768,7116
0.868,7116,-7016,7116
0.869,7116,-6519,7116
0.87,7116,-7116,7116
0.871,7116,-6867,7116
0.872,7116,-6867,7116
0.873,7116,-6618,7116
0.874,7116,-7116,7116
0.875,7116,-6768,7116
0.876,7116,-6917,7116
0.877,7116,-6967,7116
0.878,7116,-6519,7116
0.879,7116,-6668,7116
0.88,7116,-6917,7116
0.881,7116,-7116,7116
0.882,7116,-6618,7116
0.883,7116,-6817,7116
0.884,7116,-6867,7116
0.885,7116,-6768,7116
0.886,7116,-7066,7116
0.887,7116,-6668,7116
0.888,7116,-6618,7116
0.889,7116,-6967,7116
0.89,7116,-6718,7116
0.891,7116,-6817,7116
0.892,7116,-6768,7116
0.893,7116,-6867,7116
0.894,7116,-6917,7116
0.895,7116,-6768,7116
0.896,7116,-6768,7116
0.897,7116,-6519,7116
0.898,7116,-6668,7116
0.899,7116,-6867,7116
0.9,7116,-6867,7116
0.901,7116,-6917,7116
0.902,7116,-6817,7116
0.903,7116,-6817,7116
0.904,7116,-6768,7116
0.905,7116,-7116,7116
0.906,7116,-6618,7116
0.907,7116,-6867,7116
0.908,7116,-7066,7116
0.909,7116,-7016,7116
0.91,7116,-6718,7116
0.911,7116,-6668,7116
0.912,7116,-6867,7116
0.913,7116,-6569,7116
0.914,7116,-6768,7116
0.915,7116,-6618,7116
0.916,7116,-6718,7116
0.917,7116,-6917,7116
0.918,7116,-6867,7116
0.919,7116,-6519,7116
0.92,7116,-6817,7116
0.921,7116,-6718,7116
0.922,7116,-6917,7116
0.923,7116,-6967,7116
0.924,7116,-6718,7116
0.925,7116,-6867,7116
0.926,7116,-6867,7116
0.927,7116,-6917,7116
0.928,7116,-6668,7116
0.929,7116,-6867,7116
0.93,7116,-6967,7116
0.931,7116,-6768,7116
0.932,7116,-6668,7116
0.933,7116,-6967,7116
0.934,7116,-6768,7116
0.935,7116,-6768,7116
0.936,7116,-7016,7116
0.937,7116,-6718,7116
0.9380000000000001,7116,-6718,7116
0.9390000000000001,7116,-6867,7116
0.9400000000000001,7116,-7116,7116
0.9410000000000001,7116,-6967,7116
0.9420000000000001,7116,-7116,7116
0.9430000000000001,7116,-6967,7116
0.9440000000000001,7116,-7116,7116
0.9450000000000001,7116,-6867,7116
0.9460000000000001,7116,-7116,7116
0.9470000000000001,7116,-6817,7116
0.9480000000000001,7116,-6768,7116
0.9490000000000001,7116,-6668,7116
0.9500000000000001,7116,-6867,7116
0.9510000000000001,7116,-7116,7116
0.9520000000000001,7116,-6867,7116
0.9530000000000001,7116,-6718,7116
0.9540000000000001,7116,-7116,7116
0.9550000000000001,7116,-6967,7116
0.9560000000000001,7116,-7066,7116
0.9570000000000001,7116,-7016,7116
0.9580000000000001,7116,-6768,7116
0.9590000000000001,7116,-6917,7116
0.96,7116,-7016,7116
0.961,7116,-6917,7116
0.962,7116,-7016,7116
0.963,7116,-6618,7116
0.964,7116,-7116,7116
0.965,7116,-6768,7116
0.966,7116,-6668,7116
0.967,7116,-7066,7116
0.968,7116,-7016,7116
0.969,7116,-7116,7116
0.97,7116,-7116,7116
0.971,7116,-6718,7116
0.972,7116,-6668,7116
0.973,7116,-6867,7116
0.974,7116,-7116,7116
0.975,7116,-7016,7116
0.976,7116,-6817,7116
0.977,7116,-6967,7116
0.978,7116,-6618,7116
0.979,7116,-7016,7116
0.98,7116,-6718,7116
0.981,7116,-6867,7116
0.982,7116,-6867,7116
0.983,7116,-7116,7116
0.984,7116,-7066,7116
0.985,7116,-6867,7116
0.986,7116,-6817,7116
0.987,7116,-7066,7116
0.988,7116,-6967,7116
0.989,7116,-6817,7116
0.99,7116,-6917,7116
0.991,7116,-6917,7116
0.992,7116,-6917,7116
0.993,7116,-6967,7116
0.994,7116,-6768,7116
0.995,7116,-6768,7116
0.996,7116,-7016,7116
0.997,7116,-6917,7116
0.998,7116,-7116,7116
0.999,7116,-6867,7116
1.0,7116,-6917,7116
1.0010000000000001,7116,-7066,7116
1.002,7116,-7116,7116
1.0030000000000001,7116,-6768,7116
1.004,7116,-6768,7116
1.0050000000000001,7116,-7116,7116
1.006,7116,-6817,7116
1.0070000000000001,7116,-6867,7116
1.008,7116,-6817,7116
1.0090000000000001,7116,-7116,7116
1.01,7116,-7116,7116
1.0110000000000001,7116,-6917,7116
1.012,7116,-7116,7116
1.0130000000000001,7116,-6817,7116
1.014,7116,-6917,7116
1.0150000000000001,7116,-6618,7116
1.016,7116,-6967,7116
1.0170000000000001,7116,-6967,7116
1.018,7116,-6967,7116
1.0190000000000001,7116,-7066,7116
1.02,7116,-6967,7116
1.0210000000000001,7116,-6967,7116
1.022,7116,-6817,7116
1.0230000000000001,7116,-6917,7116
1.024,7116,-6817,7116
1.025,7116,-6768,7116
1.026,7116,-7016,7116
1.027,7116,-7066,7116
1.028,7116,-6917,7116
1.029,7116,-7116,7116
1.03,7116,-6917,7116
1.031,7116,-7016,7116
1.032,7116,-6718,7116
1.033,7116,-7116,7116
1.034,7116,-6867,7116
1.035,7116,-7066,7116
1.036,7116,-7066,7116
1.037,7116,-7066,7116
1.038,7116,-6867,7116
1.039,7116,-7066,7116
1.04,7116,-7116,7116
1.041,7116,-6768,7116
1.042,7116,-6867,7116
1.043,7116,-6917,7116
1.044,7116,-6917,7116
1.045,7116,-6718,7116
1.046,7116,-7016,7116
1.047,7116,-7116,7116
1.048,7116,-7116,7116
1.049,7116,-7116,7116
1.05,7116,-7066,7116
1.051,7116,-6967,7116
1.052,7116,-6917,7116
1.053,7116,-6967,7116
1.054,7116,-6867,7116
1.055,7116,-7116,7116
1.056,7116,-7016,7116
1.057,7116,-6917,7116
1.058,7116,-7116,7116
1.059,7116,-7116,7116
1.06,7116,-6867,7116
1.061,7116,-6967,7116
1.062,7116,-6519,7116
1.063,7116,-6817,7116
1.064,7116,-6967,7116
1.065,7116,-6817,7116
1.066,7116,-6917,7116
1.067,7116,-6817,7116
1.068,7116,-7116,7116
1.069,7116,-7016,7116
1.07,7116,-6917,7116
1.071,7116,-7016,7116
1.072,7116,-7016,7116
1.073,7116,-6867,7116
1.074,7116,-7066,7116
1.075,7116,-7016,7116
1.076,7116,-6967,7116
1.077,7116,-6967,7116
1.078,7116,-6917,7116
1.079,7116,-7066,7116
1.08,7116,-7016,7116
1.081,7116,-6817,7116
1.082,7116,-7116,7116
1.083,7116,-6668,7116
1.084,7116,-6917,7116
1.085,7116,-6768,7116
1.086,7116,-6817,7116
1.087,7116,-7116,7116
1.088,7116,-6718,7116
1.089,7116,-7116,7116
1.09,7116,-7066,7116
1.091,7116,-6817,7116
1.092,7116,-7116,7116
1.093,7116,-6967,7116
1.094,7116,-7116,7116
1.095,7116,-6917,7116
1.096,7116,-7116,7116
1.097,7116,-7116,7116
1.098,7116,-7066,7116
1.099,7116,-7116,7116
1.1,7116,-6917,7116
1.101,7116,-7116,7116
1.102,7116,-6917,7116
1.103,7116,-7116,7116
1.104,7116,-6917,7116
1.105,7116,-6967,7116
1.106,7116,-7016,7116
1.107,7116,-7116,7116
1.108,7116,-7116,7116
1.109,7116,-7116,7116
1.11,7116,-6917,7116
1.111,7116,-6917,7116
1.112,7116,-7016,7116
1.113,7116,-7066,7116
1.114,7116,-7016,7116
1.115,7116,-6917,7116
1.116,7116,-6867,7116
1.117,7116,-7016,7116
1.118,7116,-6917,7116
1.119,7116,-6917,7116
1.12,7116,-7016,7116
1.121,7116,-7116,7116
1.122,7116,-6967,7116
1.123,7116,-6967,7116
1.124,7116,-7116,7116
1.125,7116,-6967,7116
1.1260000000000001,7116,-7116,7116
1.127,7116,-7016,7116
1.1280000000000001,7116,-6768,7116
1.129,7116,-6967,7116
1.1300000000000001,7116,-7116,7116
1.131,7116,-7116,7116
1.1320000000000001,7116,-7116,7116
1.133,7116,-7116,7116
1.1340000000000001,7116,-7066,7116
1.135,7116,-6867,7116
1.1360000000000001,7116,-7116,7116
1.137,7116,-7116,7116
1.1380000000000001,7116,-7066,7116
1.139,7116,-7116,7116
1.1400000000000001,7116,-7116,7116
1.141,7116,-7116,7116
1.1420000000000001,7116,-7116,7116
1.143,7116,-6569,7116
1.1440000000000001,7116,-7116,7116
1.145,7116,-7016,7116
1.1460000000000001,7116,-6867,7116
1.147,7116,-6917,7116
1.1480000000000001,7116,-7116,7116
1.149,7116,-7066,7116
1.1500000000000001,7116,-6967,7116
1.151,7116,-7116,7116
1.1520000000000001,7116,-6817,7116
1.153,7116,-7066,7116
1.154,7116,-7066,7116
1.155,7116,-7116,7116
1.156,7116,-6917,7116
1.157,7116,-7116,7116
1.158,7116,-7116,7116
1.159,7116,-7016,7116
1.16,7116,-7116,7116
1.161,7116,-7116,7116
1.162,7116,-7016,7116
1.163,7116,-6967,7116
1.164,7116,-7066,7116
1.165,7116,-6917,7116
1.166,7116,-7016,7116
1.167,7116,-6967,7116
1.168,7116,-6768,7116
1.169,7116,-7066,7116
1.17,7116,-7066,7116
1.171,7116,-6917,7116
1.172,7116,-7116,7116
1.173,7116,-7116,7116
1.174,7116,-7016,7116
1.175,7116,-6917,7116
1.176,7116,-7066,7116
1.177,7116,-6867,7116
1.178,7116,-7116,7116
1.179,7116,-7116,7116
1.18,7116,-6817,7116
1.181,7116,-7116,7116
1.182,7116,-7066,7116
1.183,7116,-7116,7116
1.184,7116,-7116,7116
1.185,7116,-7066,7116
1.186,7116,-7116,7116
1.187,7116,-7016,7116
1.188,7116,-7116,7116
1.189,7116,-7116,7116
1.19,7116,-7116,7116
1.191,7116,-7116,7116
1.192,7116,-6967,7116
1.193,7116,-7116,7116
1.194,7116,-7016,7116
1.195,7116,-7016,7116
1.196,7116,-7016,7116
1.197,7116,-7116,7116
1.198,7116,-6917,7116
1.199,7116,-7116,7116
1.2,7116,-7116,7116
1.201,7116,-6718,7116
1.202,7116,-7016,7116
1.203,7116,-7016,7116
1.204,7116,-6967,7116
1.205,7116,-6967,7116
1.206,7116,-7116,7116
1.207,7116,-7066,7116
1.208,7116,-7116,7116
1.209,7116,-7116,7116
1.21,7116,-7066,7116
1.211,7116,-7016,7116
1.212,7116,-7016,7116
1.213,7116,-7116,7116
1.214,7116,-7116,7116
1.215,7116,-7116,7116
1.216,7116,-7116,7116
1.217,7116,-7066,7116
1.218,7116,-6967,7116
1.219,7116,-7066,7116
1.22,7116,-7116,7116
1.221,7116,-6917,7116
1.222,7116,-7116,7116
1.223,7116,-7116,7116
1.224,7116,-7116,7116
1.225,7116,-7116,7116
1.226,7116,-7016,7116
1.227,7116,-7016,7116
1.228,7116,-7116,7116
1.229,7116,-7116,7116
1.23,7116,-7116,7116
1.231,7116,-7116,7116
1.232,7116,-7016,7116
1.233,7116,-7116,7116
1.234,7116,-7116,7116
1.235,7116,-7116,7116
1.236,7116,-7116,7116
1.237,7116,-7116,7116
1.238,7116,-7016,7116
1.239,7116,-7016,7116
1.24,7116,-7116,7116
1.241,7116,-7116,7116
1.242,7116,-6668,7116
1.243,7116,-7116,7116
1.244,7116,-7116,7116
1.245,7116,-7116,7116
1.246,7116,-6917,7116
1.247,7116,-7116,7116
1.248,7116,-7116,7116
1.249,7116,-7116,7116
1.25,7116,-7066,7116
1.2510000000000001,7116,-6967,7116
1.252,7116,-7116,7116
1.2530000000000001,7116,-7066,7116
1.254,7116,-7116,7116
1.2550000000000001,7116,-6917,7116
1.256,7116,-6967,7116
1.2570000000000001,7116,-7116,7116
1.258,7116,-6917,7116
1.2590000000000001,7116,-7116,7116
1.26,7116,-7116,7116
1.2610000000000001,7116,-7116,7116
1.262,7116,-6817,7116
1.2630000000000001,7116,-6917,7116
1.264,7116,-7116,7116
1.2650000000000001,7116,-7016,7116
1.266,7116,-7116,7116
1.2670000000000001,7116,-7016,7116
1.268,7116,-7066,7116
1.2690000000000001,7116,-7116,7116
1.27,7116,-6967,7116
1.2710000000000001,7116,-7016,7116
1.272,7116,-7116,7116
1.2730000000000001,7116,-6867,7116
1.274,7116,-7116,7116
1.2750000000000001,7116,-7116,7116
1.276,7116,-6867,7116
1.2770000000000001,7116,-7116,7116
1.278,7116,-7066,7116
1.2790000000000001,7116,-7116,7116
1.28,7116,-7116,7116
1.281,7116,-7116,7116
1.282,7116,-6967,7116
1.283,7116,-7116,7116
1.284,7116,-7116,7116
1.285,7116,-7116,7116
1.286,7116,-6967,7116
1.287,7116,-7116,7116
1.288,7116,-7116,7116
1.289,7116,-7066,7116
1.29,7116,-7116,7116
1.291,7116,-6817,7116
1.292,7116,-6917,7116
1.293,7116,-7116,7116
1.294,7116,-7016,7116
1.295,7116,-7116,7116
1.296,7116,-7066,7116
1.297,7116,-7016,7116
1.298,7116,-7116,7116
1.299,7116,-7116,7116
1.3,7116,-7116,7116
1.301,7116,-6967,7116
1.302,7116,-7116,7116
1.303,7116,-7066,7116
1.304,7116,-7116,7116
1.305,7116,-7116,7116
1.306,7116,-7116,7116
1.307,7116,-7066,7116
1.308,7116,-7116,7116
1.309,7116,-7116,7116
1.31,7116,-7016,7116
1.311,7116,-7116,7116
1.312,7116,-7116,7116
1.313,7116,-7116,7116
1.314,7116,-7116,7116
1.315,7116,-7116,7116
1.316,7116,-7016,7116
1.317,7116,-7116,7116
1.318,7116,-7116,7116
1.319,7116,-7116,7116
1.32,7116,-7116,7116
1.321,7116,-7116,7116
1.322,7116,-7016,7116
1.323,7116,-7116,7116
1.324,7116,-7116,7116
1.325,7116,-7116,7116
1.326,7116,-7116,7116
1.327,7116,-7116,7116
1.328,7116,-7116,7116
1.329,7116,-7116,7116
1.33,7116,-7116,7116
1.331,7116,-7066,7116
1.332,7116,-7116,7116
1.333,7116,-7116,7116
1.334,7116,-7116,7116
1.335,7116,-7116,7116
1.336,7116,-7116,7116
1.337,7116,-7116,7116
1.338,7116,-7116,7116
1.339,7116,-7116,7116
1.34,7116,-7116,7116
1.341,7116,-7116,7116
1.342,7116,-7116,7116
1.343,7116,-7116,7116
1.344,7116,-7116,7116
1.345,7116,-7116,7116
1.346,7116,-7116,7116
1.347,7116,-7116,7116
1.348,7116,-7116,7116
1.349,7116,-7116,7116
1.35,7116,-7116,7116
1.351,7116,-7116,7116
1.352,7116,-7116,7116
1.353,7116,-7116,7116
1.354,7116,-7116,7116
1.355,7116,-7116,7116
1.356,7116,-7116,7116
1.357,7116,-7116,7116
1.358,7116,-7116,7116
1.359,7116,-7116,7116
1.36,7116,-7116,7116
1.361,7116,-7116,7116
1.362,7116,-7116,7116
1.363,7116,-7116,7116
1.364,7116,-7116,7116
1.365,7116,-7116,7116
1.366,7116,-7116,7116
1.367,7116,-7116,7116
1.368,7116,-6967,7116
1.369,7116,-7116,7116
1.37,7116,-7116,7116
1.371,7116,-7016,7116
1.372,7116,-7116,7116
1.373,7116,-7116,7116
1.374,7116,-7116,7116
1.375,7116,-7116,7116
1.3760000000000001,7116,-7116,7116
1.377,7116,-7116,7116
1.3780000000000001,7116,-7116,7116
1.379,7116,-7116,7116
1.3800000000000001,7116,-7116,7116
1.381,7116,-7116,7116
1.3820000000000001,7116,-7116,7116
1.383,7116,-7116,7116
1.3840000000000001,7116,-7116,7116
1.385,7116,-7116,7116
1.3860000000000001,7116,-7116,7116
1.387,7116,-7116,7116
1.3880000000000001,7116,-7116,7116
1.389,7116,-7116,7116
1.3900000000000001,7116,-7116,7116
1.391,7116,-7116,7116
1.3920000000000001,7116,-7116,7116
1.393,7116,-7116,7116
1.3940000000000001,7116,-7116,7116
1.395,7116,-7116,7116
1.3960000000000001,7116,-7116,7116
1.397,7116,-7016,7116
1.3980000000000001,7116,-7116,7116
1.399,7116,-7116,7116
1.4000000000000001,7116,-7116,7116
1.401,7116,-6967,7116
1.4020000000000001,7116,-7116,7116
1.403,7116,-7116,7116
1.4040000000000001,7116,-7116,7116
1.405,7116,-7066,7116
1.4060000000000001,7116,-7116,7116
1.407,7116,-7116,7116
1.408,7116,-7116,7116
1.409,7116,-7116,7116
1.41,7116,-7116,7116
1.411,7116,-7116,7116
1.412,7116,-7116,7116
1.413,7116,-7116,7116
1.414,7116,-7116,7116
1.415,7116,-7116,7116
1.416,7116,-7116,7116
1.417,7116,-7116,7116
1.418,7116,-7116,7116
1.419,7116,-7116,7116
1.42,7116,-7116,7116
1.421,7116,-7116,7116
1.422,7116,-7116,7116
1.423,7116,-7116,7116
1.424,7116,-7116,7116
1.425,7116,-7116,7116
1.426,7116,-7116,7116
1.427,7116,-7116,7116
1.428,7116,-7116,7116
1.429,7116,-7116,7116
1.43,7116,-7116,7116
1.431,7116,-7116,7116
1.432,7116,-7116,7116
1.433,7116,-7116,7116
1.434,7116,-7116,7116
1.435,7116,-7116,7116
1.436,7116,-7116,7116
1.437,7116,-7116,7116
1.438,7116,-7116,7116
1.439,7116,-7116,7116
1.44,7116,-7116,7116
1.441,7116,-7116,7116
1.442,7116,-7116,7116
1.443,7116,-7116,7116
1.444,7116,-7116,7116
1.445,7116,-7116,7116
1.446,7116,-7116,7116
1.447,7116,-7116,7116
1.448,7116,-7116,7116
1.449,7116,-7116,7116
1.45,7116,-7116,7116
1.451,7116,-7116,7116
1.452,7116,-7116,7116
1.453,7116,-7116,7116
1.454,7116,-7066,7116
1.455,7116,-7116,7116
1.456,7116,-7116,7116
1.457,7116,-7116,7116
1.458,7116,-7116,7116
1.459,7116,-7116,7116
1.46,7116,-7116,7116
1.461,7116,-7116,7116
1.462,7116,-7116,7116
1.463,7116,-7116,7116
1.464,7116,-7116,7116
1.465,7116,-7116,7116
1.466,7116,-7116,7116
1.467,7116,-7116,7116
1.468,7116,-7116,7116
1.469,7116,-7116,7116
1.47,7116,-7116,7116
1.471,7116,-7116,7116
1.472,7116,-7116,7116
1.473,7116,-7116,7116
1.474,7116,-7116,7116
1.475,7116,-7116,7116
1.476,7116,-7116,7116
1.477,7116,-7116,7116
1.478,7116,-7116,7116
1.479,7116,-7116,7116
1.48,7116,-7116,7116
1.481,7116,-7116,7116
1.482,7116,-7116,7116
1.483,7116,-7116,7116
1.484,7116,-7116,7116
1.485,7116,-7116,7116
1.486,7116,-7116,7116
1.487,7116,-7116,7116
1.488,7116,-7116,7116
1.489,7116,-7116,7116
1.49,7116,-7116,7116
1.491,7116,-7116,7116
1.492,7116,-7116,7116
1.493,7116,-7116,7116
1.494,7116,-7116,7116
1.495,7116,-7116,7116
1.496,7116,-7116,7116
1.497,7116,-7116,7116
1.498,7116,-7116,7116
1.499,7116,-7116,7116
1.5,7116,-7116,7116
1.5010000000000001,7116,-7116,7116
1.502,7116,-7116,7116
1.5030000000000001,7116,-7116,7116
1.504,7116,-7116,7116
1.5050000000000001,7116,-7116,7116
1.506,7116,-7116,7116
1.5070000000000001,7116,-7116,7116
1.508,7116,-7116,7116
1.5090000000000001,7116,-7116,7116
1.51,7116,-7116,7116
1.5110000000000001,7116,-7116,7116
1.512,7116,-7116,7116
1.5130000000000001,7116,-7116,7116
1.514,7116,-7116,7116
1.5150000000000001,7116,-7116,7116
1.516,7116,-7116,7116
1.5170000000000001,7116,-7116,7116
1.518,7116,-7116,7116
1.5190000000000001,7116,-7116,7116
1.52,7116,-7116,7116
1.5210000000000001,7116,-7116,7116
1.522,7116,-7116,7116
1.5230000000000001,7116,-7116,7116
1.524,7116,-7116,7116
1.5250000000000001,7116,-7116,7116
1.526,7116,-7116,7116
1.5270000000000001,7116,-7116,7116
1.528,7116,-7116,7116
1.5290000000000001,7116,-7116,7116
1.53,7116,-7116,7116
1.5310000000000001,7116,-7116,7116
1.532,7116,-7116,7116
1.5330000000000001,7116,-7116,7116
1.534,7116,-7116,7116
1.5350000000000001,7116,-7116,7116
1.536,7116,-7116,7116
1.537,7116,-7116,7116
1.538,7116,-7116,7116
1.539,7116,-7116,7116
1.54,7116,-7116,7116
1.541,7116,-7116,7116
1.542,7116,-7116,7116
1.543,7116,-7116,7116
1.544,7116,-7116,7116
1.545,7116,-7116,7116
1.546,7116,-7116,7116
1.547,7116,-7116,7116
1.548,7116,-7116,7116
1.549,7116,-7116,7116
1.55,7116,-7116,7116
1.551,7116,-7116,7116
1.552,7116,-7116,7116
1.553,7116,-7116,7116
1.554,7116,-7116,7116
1.555,7116,-7116,7116
1.556,7116,-7116,7116
1.557,7116,-7116,7116
1.558,7116,-7116,7116
1.559,7116,-7116,7116
1.56,7116,-7116,7116
1.561,7116,-7116,7116
1.562,7116,-7116,7116
1.563,7116,-7116,7116
1.564,7116,-7116,7116
1.565,7116,-7116,7116
1.566,7116,-7116,7116
1.567,7116,-7066,7116
1.568,7116,-7116,7116
1.569,7116,-7116,7116
1.57,7116,-7116,7116
1.571,7116,-7116,7116
1.572,7116,-7116,7116
1.573,7116,-7116,7116
1.574,7116,-7116,7116
1.575,7116,-7116,7116
1.576,7116,-7116,7116
1.577,7116,-7116,7116
1.578,7116,-7116,7116
1.579,7116,-7116,7116
1.58,7116,-7116,7116
1.581,7116,-7116,7116
1.582,7116,-7116,7116
1.583,7116,-7116,7116
1.584,7116,-7116,7116
1.585,7116,-7116,7116
1.586,7116,-7116,7116
1.587,7116,-7116,7116
1.588,7116,-7116,7116
1.589,7116,-7116,7116
1.59,7116,-7116,7116
1.591,7116,-7116,7116
1.592,7116,-7116,7116
1.593,7116,-7116,7116
1.594,7116,-7116,7116
1.595,7116,-7116,7116
1.596,7116,-7116,7116
1.597,7116,-7116,7116
1.598,7116,-7116,7116
1.599,7116,-7116,7116
1.6,7116,-7066,7116
1.601,7116,-7116,7116
1.602,7116,-7116,7116
1.603,7116,-7116,7116
1.604,7116,-7116,7116
1.605,7116,-7116,7116
1.606,7116,-7116,7116
1.607,7116,-7116,7116
1.608,7116,-7116,7116
1.609,7116,-7116,7116
1.61,7116,-7116,7116
1.611,7116,-7116,7116
1.612,7116,-7116,7116
1.613,7116,-7116,7116
1.614,7116,-7116,7116
1.615,7116,-7116,7116
1.616,7116,-7116,7116
1.617,7116,-7116,7116
1.618,7116,-7116,7116
1.619,7116,-7116,7116
1.62,7116,-7116,7116
1.621,7116,-7116,7116
1.622,7116,-7116,7116
1.623,7116,-7016,7116
1.624,7116,-7116,7116
1.625,7116,-7116,7116
1.6260000000000001,7116,-7116,7116
1.627,7116,-7116,7116
1.6280000000000001,7116,-7116,7116
1.629,7116,-7116,7116
1.6300000000000001,7116,-7116,7116
1.631,7116,-7116,7116
1.6320000000000001,7116,-7116,7116
1.633,7116,-7116,7116
1.6340000000000001,7116,-7116,7116
1.635,7116,-7116,7116
1.6360000000000001,7116,-7116,7116
1.637,7116,-7116,7116
1.6380000000000001,7116,-7116,7116
1.639,7116,-7116,7116
1.6400000000000001,7116,-7116,7116
1.641,7116,-7116,7116
1.6420000000000001,7116,-7116,7116
1.643,7116,-7116,7116
1.6440000000000001,7116,-7116,7116
1.645,7116,-7116,7116
1.6460000000000001,7116,-7116,7116
1.647,7116,-7116,7116
1.6480000000000001,7116,-7116,7116
1.649,7116,-7066,7116
1.6500000000000001,7116,-7116,7116
1.651,7116,-7116,7116
1.6520000000000001,7116,-7116,7116
1.653,7116,-7016,7116
1.6540000000000001,7116,-7116,7116
1.655,7116,-7116,7116
1.6560000000000001,7116,-7116,7116
1.657,7116,-7116,7116
1.6580000000000001,7116,-7116,7116
1.659,7116,-7116,7116
1.6600000000000001,7116,-7116,7116
1.661,7116,-7116,7116
1.6620000000000001,7116,-7116,7116
1.663,7116,-7116,7116
1.6640000000000001,7116,-7016,7116
1.665,7116,-7116,7116
1.666,7116,-7116,7116
1.667,7116,-7116,7116
1.668,7116,-7116,7116
1.669,7116,-7116,7116
1.67,7116,-7116,7116
1.671,7116,-7116,7116
1.672,7116,-7116,7116
1.673,7116,-7116,7116
1.674,7116,-7116,7116
1.675,7116,-7116,7116
1.676,7116,-7116,7116
1.677,7116,-7116,7116
1.678,7116,-7116,7116
1.679,7116,-7116,7116
1.68,7116,-7116,7116
1.681,7116,-7116,7116
1.682,7116,-7116,7116
1.683,7116,-7116,7116
1.684,7116,-7116,7116
1.685,7116,-7016,7116
1.686,7116,-7116,7116
1.687,7116,-7116,7116
1.688,7116,-7116,7116
1.689,7116,-7116,7116
1.69,7116,-7066,7116
1.691,7116,-7116,7116
1.692,7116,-7116,7116
1.693,7116,-7116,7116
1.694,7116,-7066,7116
1.695,7116,-7116,7116
1.696,7116,-7116,7116
1.697,7116,-7066,7116
1.698,7116,-6967,7116
1.699,7116,-7116,7116
1.7,7116,-7116,7116
1.701,7116,-6967,7116
1.702,7116,-7116,7116
1.703,7116,-7066,7116
1.704,7116,-7116,7116
1.705,7116,-7116,7116
1.706,7116,-7066,7116
1.707,7116,-7116,7116
1.708,7116,-7116,7116
1.709,7116,-7116,7116
1.71,7116,-7016,7116
1.711,7116,-7116,7116
1.712,7116,-7116,7116
1.713,7116,-7066,7116
1.714,7116,-6967,7116
1.715,7116,-7116,7116
1.716,7116,-7066,7116
1.717,7116,-7116,7116
1.718,7116,-7116,7116
1.719,7116,-7116,7116
1.72,7116,-7116,7116
1.721,7116,-7016,7116
1.722,7116,-7116,7116
1.723,7116,-7116,7116
1.724,7116,-7116,7116
1.725,7116,-7116,7116
1.726,7116,-7016,7116
1.727,7116,-7116,7116
1.728,7116,-7066,7116
1.729,7116,-7116,7116
1.73,7116,-7116,7116
1.731,7116,-6817,7116
1.732,7116,-7016,7116
1.733,7116,-7116,7116
1.734,7116,-7116,7116
1.735,7116,-7116,7116
1.736,7116,-7016,7116
1.737,7116,-6817,7116
1.738,7116,-7116,7116
1.739,7116,-6718,7116
1.74,7116,-6967,7116
1.741,7116,-7116,7116
1.742,7116,-7016,7116
1.743,7116,-7016,7116
1.744,7116,-7116,7116
1.745,7116,-7016,7116
1.746,7116,-6967,7116
1.747,7116,-7116,7116
1.748,7116,-7116,7116
1.749,7116,-7066,7116
1.75,7116,-6867,7116
1.7510000000000001,7116,-7016,7116
1.752,7116,-7116,7116
1.7530000000000001,7116,-7116,7116
1.754,7116,-7116,7116
1.7550000000000001,7116,-7116,7116
1.756,7116,-7116,7116
1.7570000000000001,7116,-7116,7116
1.758,7116,-6768,7116
1.7590000000000001,7116,-7016,7116
1.76,7116,-7116,7116
1.7610000000000001,7116,-6867,7116
1.762,7116,-7066,7116
1.7630000000000001,7116,-7116,7116
1.764,7116,-6967,7116
1.7650000000000001,7116,-7066,7116
1.766,7116,-7116,7116
1.7670000000000001,7116,-7116,7116
1.768,7116,-6967,7116
1.7690000000000001,7116,-6917,7116
1.77,7116,-7116,7116
1.7710000000000001,7116,-7066,7116
1.772,7116,-6917,7116
1.7730000000000001,7116,-7116,7116
1.774,7116,-7066,7116
1.7750000000000001,7116,-7116,7116
1.776,7116,-7066,7116
1.7770000000000001,7116,-6917,7116
1.778,7116,-6917,7116
1.7790000000000001,7116,-7116,7116
1.78,7116,-7016,7116
1.7810000000000001,7116,-6967,7116
1.782,7116,-6718,7116
1.7830000000000001,7116,-7116,7116
1.784,7116,-7066,7116
1.7850000000000001,7116,-7016,7116
1.786,7116,-7116,7116
1.7870000000000001,7116,-6867,7116
1.788,7116,-6967,7116
1.7890000000000001,7116,-7016,7116
1.79,7116,-6867,7116
1.7910000000000001,7116,-6867,7116
1.792,7116,-7066,7116
1.793,7116,-6917,7116
1.794,7116,-6817,7116
1.795,7116,-7016,7116
1.796,7116,-6917,7116
1.797,7116,-7016,7116
1.798,7116,-6967,7116
1.799,7116,-6867,7116
1.8,7116,-7116,7116
1.801,7116,-7066,7116
1.802,7116,-7116,7116
1.803,7116,-7016,7116
1.804,7116,-7066,7116
1.805,7116,-7116,7116
1.806,7116,-7016,7116
1.807,7116,-6718,7116
1.808,7116,-7066,7116
1.809,7116,-6867,7116
1.81,7116,-6917,7116
1.811,7116,-7016,7116
1.812,7116,-7116,7116
1.813,7116,-7066,7116
1.814,7116,-6768,7116
1.815,7116,-7116,7116
1.816,7116,-6967,7116
1.817,7116,-6569,7116
1.818,7116,-7116,7116
1.819,7116,-6917,7116
1.82,7116,-6967,7116
1.821,7116,-7066,7116
1.822,7116,-6668,7116
1.823,7116,-6967,7116
1.824,7116,-6718,7116
1.825,7116,-7066,7116
1.826,7116,-7066,7116
1.827,7116,-7116,7116
1.828,7116,-7016,7116
1.829,7116,-6917,7116
1.83,7116,-6967,7116
1.831,7116,-7116,7116
1.832,7116,-6917,7116
1.833,7116,-6817,7116
1.834,7116,-7116,7116
1.835,7116,-6768,7116
1.836,7116,-7116,7116
1.837,7116,-6768,7116
1.838,7116,-7116,7116
1.839,7116,-6917,7116
1.84,7116,-6917,7116
1.841,7116,-7116,7116
1.842,7116,-6817,7116
1.843,7116,-7066,7116
1.844,7116,-6917,7116
1.845,7116,-6917,7116
1.846,7116,-7016,7116
1.847,7116,-7116,7116
1.848,7116,-7066,7116
1.849,7116,-6867,7116
1.85,7116,-7116,7116
1.851,7116,-7066,7116
1.852,7116,-6768,7116
1.853,7116,-7066,7116
1.854,7116,-6768,7116
1.855,7116,-6618,7116
1.856,7116,-6917,7116
1.857,7116,-6967,7116
1.858,7116,-6967,7116
1.859,7116,-7116,7116
1.86,7116,-6768,7116
1.861,7116,-6817,7116
1.862,7116,-6768,7116
1.863,7116,-7116,7116
1.864,7116,-6768,7116
1.865,7116,-6917,7116
1.866,7116,-6817,7116
1.867,7116,-6917,7116
1.868,7116,-7016,7116
1.869,7116,-6867,7116
1.87,7116,-6768,7116
1.871,7116,-7016,7116
1.872,7116,-6618,7116
1.873,7116,-6768,7116
1.874,7116,-6718,7116
1.875,7116,-6768,7116
1.8760000000000001,7116,-7016,7116
1.877,7116,-6668,7116
1.8780000000000001,7116,-6817,7116
1.879,7116,-7116,7116
1.8800000000000001,7116,-6967,7116
1.881,7116,-7116,7116
1.8820000000000001,7116,-7066,7116
1.883,7116,-6967,7116
1.8840000000000001,7116,-7066,7116
1.885,7116,-6967,7116
1.8860000000000001,7116,-6917,7116
1.887,7116,-6917,7116
1.8880000000000001,7116,-6569,7116
1.889,7116,-6768,7116
1.8900000000000001,7116,-6967,7116
1.891,7116,-6917,7116
1.8920000000000001,7116,-6718,7116
1.893,7116,-6618,7116
1.8940000000000001,7116,-6768,7116
1.895,7116,-6618,7116
1.8960000000000001,7116,-6867,7116
1.897,7116,-6768,7116
1.8980000000000001,7116,-6718,7116
1.899,7116,-6967,7116
1.9000000000000001,7116,-6768,7116
1.901,7116,-7016,7116
1.9020000000000001,7116,-6817,7116
1.903,7116,-6917,7116
1.9040000000000001,7116,-6618,7116
1.905,7116,-6768,7116
1.9060000000000001,7116,-7016,7116
1.907,7116,-6768,7116
1.9080000000000001,7116,-7016,7116
1.909,7116,-6867,7116
1.9100000000000001,7116,-6768,7116
1.911,7116,-7116,7116
1.9120000000000001,7116,-6967,7116
1.913,7116,-6917,7116
1.9140000000000001,7116,-6867,7116
1.915,7116,-6718,7116
1.9160000000000001,7116,-6768,7116
1.917,7116,-6817,7116
1.9180000000000001,7116,-6668,7116
1.919,7116,-6768,7116
1.92,7116,-6718,7116
1.921,7116,-6967,7116
1.922,7116,-6817,7116
1.923,7116,-7066,7116
1.924,7116,-6718,7116
1.925,7116,-7116,7116
1.926,7116,-6867,7116
1.927,7116,-6867,7116
1.928,7116,-7066,7116
1.929,7116,-6867,7116
1.93,7116,-7116,7116
1.931,7116,-6718,7116
1.932,7116,-6668,7116
1.933,7116,-6817,7116
1.934,7116,-6867,7116
1.935,7116,-6867,7116
1.936,7116,-6718,7116
1.937,7116,-6768,7116
1.938,7116,-6967,7116
1.939,7116,-6817,7116
1.94,7116,-6817,7116
1.941,7116,-6668,7116
1.942,7116,-6967,7116
1.943,7116,-6668,7116
1.944,7116,-6967,7116
1.945,7116,-6817,7116
1.946,7116,-6768,7116
1.947,7116,-6817,7116
1.948,7116,-6718,7116
1.949,7116,-6718,7116
1.95,7116,-6768,7116
1.951,7116,-6817,7116
1.952,7116,-7116,7116
1.953,7116,-6867,7116
1.954,7116,-6768,7116
1.955,7116,-6569,7116
1.956,7116,-6867,7116
1.957,7116,-6569,7116
1.958,7116,-6867,7116
1.959,7116,-6917,7116
1.96,7116,-6668,7116
1.961,7116,-7016,7116
1.962,7116,-6867,7116
1.963,7116,-6569,7116
1.964,7116,-6967,7116
1.965,7116,-6519,7116
1.966,7116,-7066,7116
1.967,7116,-6917,7116
1.968,7116,-7066,7116
1.969,7116,-7116,7116
1.97,7116,-6768,7116
1.971,7116,-6867,7116
1.972,7116,-6817,7116
1.973,7116,-6768,7116
1.974,7116,-6718,7116
1.975,7116,-7016,7116
1.976,7116,-6917,7116
1.977,7116,-6618,7116
1.978,7116,-6718,7116
1.979,7116,-6618,7116
1.98,7116,-6867,7116
1.981,7116,-6867,7116
1.982,7116,-6519,7116
1.983,7116,-6817,7116
1.984,7116,-6817,7116
1.985,7116,-7016,7116
1.986,7116,-6917,7116
1.987,7116,-6668,7116
1.988,7116,-6967,7116
1.989,7116,-6817,7116
1.99,7116,-7116,7116
1.991,7116,-7016,7116
1.992,7116,-6817,7116
1.993,7116,-6768,7116
1.994,7116,-6917,7116
1.995,7116,-6817,7116
1.996,7116,-6917,7116
1.997,7116,-6867,7116
1.998,7116,-7066,7116
1.999,7116,-6817,7116
2.0,7116,-6967,7116
2.001,7116,-6668,7116
2.0020000000000002,7116,-6618,7116
2.003,7116,-6817,7116
2.004,7116,-6768,7116
2.005,7116,-6668,7116
2.0060000000000002,7116,-7066,7116
2.007,7116,-6817,7116
2.008,7116,-6867,7116
2.009,7116,-6817,7116
2.0100000000000002,7116,-6917,7116
2.011,7116,-6768,7116
2.012,7116,-6817,7116
2.013,7116,-6569,7116
2.0140000000000002,7116,-6967,7116
2.015,7116,-6917,7116
2.016,7116,-6768,7116
2.017,7116,-6618,7116
2.0180000000000002,7116,-6718,7116
2.019,7116,-7016,7116
2.02,7116,-6768,7116
2.021,7116,-6569,7116
2.0220000000000002,7116,-7116,7116
2.023,7116,-6768,7116
2.024,7116,-6967,7116
2.025,7116,-6817,7116
2.0260000000000002,7116,-6718,7116
2.027,7116,-6967,7116
2.028,7116,-6569,7116
2.029,7116,-6768,7116
2.0300000000000002,7116,-6917,7116
2.031,7116,-7116,7116
2.032,7116,-6768,7116
2.033,7116,-6718,7116
2.0340000000000003,7116,-6768,7116
2.035,7116,-6867,7116
2.036,7116,-6668,7116
2.037,7116,-6917,7116
2.0380000000000003,7116,-6718,7116
2.039,7116,-6917,7116
2.04,7116,-6618,7116
2.041,7116,-6768,7116
2.0420000000000003,7116,-6917,7116
2.043,7116,-6967,7116
2.044,7116,-6867,7116
2.045,7116,-6668,7116
2.0460000000000003,7116,-7116,7116
2.047,7116,-6917,7116
2.048,7116,-6867,7116
2.049,7116,-7116,7116
2.05,7116,-7016,7116
2.051,7116,-6817,7116
2.052,7116,-6817,7116
2.053,7116,-6867,7116
2.054,7116,-7116,7116
2.055,7116,-6867,7116
2.056,7116,-6419,7116
2.057,7116,-6867,7116
2.058,7116,-6718,7116
2.059,7116,-6817,7116
2.06,7116,-6917,7116
2.061,7116,-6768,7116
2.062,7116,-6718,7116
2.063,7116,-7066,7116
2.064,7116,-6519,7116
2.065,7116,-6817,7116
2.066,7116,-7016,7116
2.067,7116,-6817,7116
2.068,7116,-6967,7116
2.069,7116,-6668,7116
2.07,7116,-6618,7116
2.071,7116,-6817,7116
2.072,7116,-6867,7116
2.073,7116,-6817,7116
2.074,7116,-7116,7116
2.075,7116,-6817,7116
2.076,7116,-6519,7116
2.077,7116,-6768,7116
2.078,7116,-6817,7116
2.079,7116,-6967,7116
2.08,7116,-6768,7116
2.081,7116,-6668,7116
2.082,7116,-6917,7116
2.083,7116,-6718,7116
2.084,7116,-6817,7116
2.085,7116,-6817,7116
2.086,7116,-6668,7116
2.087,7116,-6668,7116
2.088,7116,-6618,7116
2.089,7116,-6867,7116
2.09,7116,-6618,7116
2.091,7116,-6718,7116
2.092,7116,-6867,7116
2.093,7116,-6519,7116
2.094,7116,-6867,7116
2.095,7116,-6668,7116
2.096,7116,-6569,7116
2.097,7116,-6917,7116
2.098,7116,-6718,7116
2.099,7116,-6718,7116
2.1,7116,-6768,7116
2.101,7116,-6668,7116
2.102,7116,-6519,7116
2.103,7116,-6817,7116
2.104,7116,-6618,7116
2.105,7116,-6967,7116
2.106,7116,-6817,7116
2.107,7116,-6817,7116
2.108,7116,-6867,7116
2.109,7116,-7066,7116
2.11,7116,-6817,7116
2.111,7116,-6768,7116
2.112,7116,-6768,7116
2.113,7116,-6618,7116
2.114,7116,-6668,7116
2.115,7116,-6817,7116
2.116,7116,-6668,7116
2.117,7116,-6867,7116
2.118,7116,-6618,7116
2.119,7116,-6817,7116
2.12,7116,-6618,7116
2.121,7116,-6618,7116
2.122,7116,-6817,7116
2.123,7116,-6718,7116
2.124,7116,-6718,7116
2.125,7116,-6917,7116
2.126,7116,-6768,7116
2.1270000000000002,7116,-6817,7116
2.128,7116,-6867,7116
2.129,7116,-6668,7116
2.13,7116,-6867,7116
2.1310000000000002,7116,-6469,7116
2.132,7116,-6967,7116
2.133,7116,-6967,7116
2.134,7116,-6867,7116
2.1350000000000002,7116,-6817,7116
2.136,7116,-6519,7116
2.137,7116,-6867,7116
2.138,7116,-6718,7116
2.1390000000000002,7116,-6618,7116
2.14,7116,-6768,7116
2.141,7116,-6668,7116
2.142,7116,-6718,7116
2.1430000000000002,7116,-6917,7116
2.144,7116,-6569,7116
2.145,7116,-6768,7116
2.146,7116,-6668,7116
2.1470000000000002,7116,-6569,7116
2.148,7116,-6867,7116
2.149,7116,-6867,7116
2.15,7116,-6917,7116
2.1510000000000002,7116,-6668,7116
2.152,7116,-6718,7116
2.153,7116,-7016,7116
2.154,7116,-6519,7116
2.1550000000000002,7116,-6817,7116
2.156,7116,-6668,7116
2.157,7116,-6917,7116
2.158,7116,-7016,7116
2.1590000000000003,7116,-6817,7116
2.16,7116,-6569,7116
2.161,7116,-6668,7116
2.162,7116,-6768,7116
2.1630000000000003,7116,-6519,7116
2.164,7116,-6768,7116
2.165,7116,-6618,7116
2.166,7116,-6419,7116
2.1670000000000003,7116,-6469,7116
2.168,7116,-6817,7116
2.169,7116,-6519,7116
2.17,7116,-6768,7116
2.1710000000000003,7116,-6419,7116
2.172,7116,-6369,7116
2.173,7116,-6618,7116
2.174,7116,-6718,7116
2.1750000000000003,7116,-6469,7116
2.176,7116,-6718,7116
2.177,7116,-6718,7116
2.178,7116,-6469,7116
2.179,7116,-6569,7116
2.18,7116,-6768,7116
2.181,7116,-6618,7116
2.182,7116,-6618,7116
2.183,7116,-6469,7116
2.184,7116,-6419,7116
2.185,7116,-6718,7116
2.186,7116,-6668,7116
2.187,7116,-6569,7116
2.188,7116,-6768,7116
2.189,7116,-6668,7116
2.19,7116,-6718,7116
2.191,7116,-6469,7116
2.192,7116,-6668,7116
2.193,7116,-6469,7116
2.194,7116,-6668,7116
2.195,7116,-6817,7116
2.196,7116,-6320,7116
2.197,7116,-6569,7116
2.198,7116,-6469,7116
2.199,7116,-6519,7116
2.2,7116,-6569,7116
2.201,7116,-6569,7116
2.202,7116,-6917,7116
2.203,7116,-6618,7116
2.204,7116,-6369,7116
2.205,7116,-6519,7116
2.206,7116,-6569,7116
2.207,7116,-6618,7116
2.208,7116,-6618,7116
2.209,7116,-6369,7116
2.21,7116,-6618,7116
2.211,7116,-6668,7116
2.212,7116,-6469,7116
2.213,7116,-6519,7116
2.214,7116,-6618,7116
2.215,7116,-6668,7116
2.216,7116,-6618,7116
2.217,7116,-6618,7116
2.218,7116,-6718,7116
2.219,7116,-6569,7116
2.22,7116,-6569,7116
2.221,7116,-6369,7116
2.222,7116,-6668,7116
2.223,7116,-6569,7116
2.224,7116,-6469,7116
2.225,7116,-6369,7116
2.226,7116,-6369,7116
2.227,7116,-6469,7116
2.228,7116,-6618,7116
2.229,7116,-6469,7116
2.23,7116,-6220,7116
2.231,7116,-6071,7116
2.232,7116,-6469,7116
2.233,7116,-6718,7116
2.234,7116,-6320,7116
2.235,7116,-6519,7116
2.236,7116,-6817,7116
2.237,7116,-6469,7116
2.238,7116,-6519,7116
2.239,7116,-6618,7116
2.24,7116,-6618,7116
2.241,7116,-6369,7116
2.242,7116,-6569,7116
2.243,7116,-6519,7116
2.244,7116,-6469,7116
2.245,7116,-6419,7116
2.246,7116,-6369,7116
2.247,7116,-6369,7116
2.248,7116,-6469,7116
2.249,7116,-6419,7116
2.25,7116,-6320,7116
2.251,7116,-6170,7116
2.2520000000000002,7116,-6419,7116
2.253,7116,-6419,7116
2.254,7116,-6419,7116
2.255,7116,-6668,7116
2.2560000000000002,7116,-6718,7116
2.257,7116,-6021,7116
2.258,7116,-6220,7116
2.259,7116,-6369,7116
2.2600000000000002,7116,-6569,7116
2.261,7116,-6320,7116
2.262,7116,-6419,7116
2.263,7116,-6220,7116
2.2640000000000002,7116,-6569,7116
2.265,7116,-6220,7116
2.266,7116,-6170,7116
2.267,7116,-6270,7116
2.2680000000000002,7116,-6419,7116
2.269,7116,-6369,7116
2.27,7116,-6320,7116
2.271,7116,-6519,7116
2.2720000000000002,7116,-6320,7116
2.273,7116,-6170,7116
2.274,7116,-6817,7116
2.275,7116,-6419,7116
2.2760000000000002,7116,-6270,7116
2.277,7116,-6369,7116
2.278,7116,-6569,7116
2.279,7116,-6469,7116
2.2800000000000002,7116,-6369,7116
2.281,7116,-6170,7116
2.282,7116,-6320,7116
2.283,7116,-6469,7116
2.2840000000000003,7116,-6170,7116
2.285,7116,-6369,7116
2.286,7116,-6071,7116
2.287,7116,-6618,7116
2.2880000000000003,7116,-6320,7116
2.289,7116,-6618,7116
2.29,7116,-6419,7116
2.291,7116,-6021,7116
2.2920000000000003,7116,-6668,7116
2.293,7116,-6519,7116
2.294,7116,-6270,7116
2.295,7116,-6369,7116
2.2960000000000003,7116,-6121,7116
2.297,7116,-6569,7116
2.298,7116,-6270,7116
2.299,7116,-6121,7116
2.3000000000000003,7116,-6519,7116
2.301,7116,-6419,7116
2.302,7116,-6121,7116
2.303,7116,-6071,7116
2.3040000000000003,7116,-6021,7116
2.305,7116,-6369,7116
2.306,7116,-6320,7116
2.307,7116,-6469,7116
2.308,7116,-6071,7116
2.309,7116,-6270,7116
2.31,7116,-6519,7116
2.311,7116,-6071,7116
2.312,7116,-6071,7116
2.313,7116,-6170,7116
2.314,7116,-5971,7116
2.315,7116,-5971,7116
2.316,7116,-6170,7116
2.317,7116,-6170,7116
2.318,7116,-6419,7116
2.319,7116,-6469,7116
2.32,7116,-6419,7116
2.321,7116,-6270,7116
2.322,7116,-6320,7116
2.323,7116,-6270,7116
2.324,7116,-6121,7116
2.325,7116,-6270,7116
2.326,7116,-6170,7116
2.327,7116,-6220,7116
2.328,7116,-6419,7116
2.329,7116,-6419,7116
2.33,7116,-6369,7116
2.331,7116,-6320,7116
2.332,7116,-6519,7116
2.333,7116,-6021,7116
2.334,7116,-6369,7116
2.335,7116,-6121,7116
2.336,7116,-5971,7116
2.337,7116,-6220,7116
2.338,7116,-6369,7116
2.339,7116,-6469,7116
2.34,7116,-6320,7116
2.341,7116,-6320,7116
2.342,7116,-6220,7116
2.343,7116,-6220,7116
2.344,7116,-6220,7116
2.345,7116,-6270,7116
2.346,7116,-6270,7116
2.347,7116,-6369,7116
2.348,7116,-6270,7116
2.349,7116,-6220,7116
2.35,7116,-6121,7116
2.351,7116,-6369,7116
2.352,7116,-6220,7116
2.353,7116,-6170,7116
2.354,7116,-6320,7116
2.355,7116,-6071,7116
2.356,7116,-6270,7116
2.357,7116,-6320,7116
2.358,7116,-6170,7116
2.359,7116,-6071,7116
2.36,7116,-6618,7116
2.361,7116,-6320,7116
2.362,7116,-6021,7116
2.363,7116,-6021,7116
2.364,7116,-6469,7116
2.365,7116,-6021,7116
2.366,7116,-6270,7116
2.367,7116,-6220,7116
2.368,7116,-6369,7116
2.369,7116,-6170,7116
2.37,7116,-6270,7116
2.371,7116,-6220,7116
2.372,7116,-6270,7116
2.373,7116,-6121,7116
2.374,7116,-6121,7116
2.375,7116,-6121,7116
2.376,7116,-6170,7116
2.3770000000000002,7116,-5971,7116
2.378,7116,-6021,7116
2.379,7116,-6021,7116
2.38,7116,-6369,7116
2.3810000000000002,7116,-6071,7116
2.382,7116,-6021,7116
2.383,7116,-6270,7116
2.384,7116,-6320,7116
2.3850000000000002,7116,-6369,7116
2.386,7116,-6220,7116
2.387,7116,-6270,7116
2.388,7116,-5971,7116
2.3890000000000002,7116,-6220,7116
2.39,7116,-6270,7116
2.391,7116,-5971,7116
2.392,7116,-6270,7116
2.3930000000000002,7116,-6270,7116
2.394,7116,-6121,7116
2.395,7116,-6320,7116
2.396,7116,-6170,7116
2.3970000000000002,7116,-6220,7116
2.398,7116,-6419,7116
2.399,7116,-6320,7116
2.4,7116,-6270,7116
2.4010000000000002,7116,-6170,7116
2.402,7116,-6220,7116
2.403,7116,-6320,7116
2.404,7116,-6320,7116
2.4050000000000002,7116,-6071,7116
2.406,7116,-6369,7116
2.407,7116,-6369,7116
2.408,7116,-6220,7116
2.4090000000000003,7116,-6270,7116
2.41,7116,-6170,7116
2.411,7116,-6220,7116
2.412,7116,-6270,7116
2.4130000000000003,7116,-6170,7116
2.414,7116,-6270,7116
2.415,7116,-6021,7116
2.416,7116,-6021,7116
2.4170000000000003,7116,-6071,7116
2.418,7116,-6369,7116
2.419,7116,-6071,7116
2.42,7116,-6071,7116
2.4210000000000003,7116,-6320,7116
2.422,7116,-6220,7116
2.423,7116,-6121,7116
2.424,7116,-6270,7116
2.4250000000000003,7116,-5922,7116
2.426,7116,-6419,7116
2.427,7116,-6519,7116
2.428,7116,-6270,7116
2.4290000000000003,7116,-6369,7116
2.43,7116,-6170,7116
2.431,7116,-6121,7116
2.432,7116,-6369,7116
2.433,7116,-6369,7116
2.434,7116,-6071,7116
2.435,7116,-6121,7116
2.436,7116,-6170,7116
2.437,7116,-6121,7116
2.438,7116,-6121,7116
2.439,7116,-6270,7116
2.44,7116,-6369,7116
2.441,7116,-6121,7116
2.442,7116,-6270,7116
2.443,7116,-6121,7116
2.444,7116,-5872,7116
2.445,7116,-6270,7116
2.446,7116,-6170,7116
2.447,7116,-6170,7116
2.448,7116,-6121,7116
2.449,7116,-6369,7116
2.45,7116,-6270,7116
2.451,7116,-6419,7116
2.452,7116,-6419,7116
2.453,7116,-6170,7116
2.454,7116,-6369,7116
2.455,7116,-6369,7116
2.456,7116,-6320,7116
2.457,7116,-6021,7116
2.458,7116,-6419,7116
2.459,7116,-6320,7116
2.46,7116,-6220,7116
2.461,7116,-6220,7116
2.462,7116,-6270,7116
2.463,7116,-6519,7116
2.464,7116,-6220,7116
2.465,7116,-6270,7116
2.466,7116,-6320,7116
2.467,7116,-6569,7116
2.468,7116,-6170,7116
2.469,7116,-6220,7116
2.47,7116,-6270,7116
2.471,7116,-6320,7116
2.472,7116,-6618,7116
2.473,7116,-6668,7116
2.474,7116,-6270,7116
2.475,7116,-6469,7116
2.476,7116,-6519,7116
2.477,7116,-6270,7116
2.478,7116,-6170,7116
2.479,7116,-6369,7116
2.48,7116,-5971,7116
2.481,7116,-6220,7116
2.482,7116,-6220,7116
2.483,7116,-6270,7116
2.484,7116,-6320,7116
2.485,7116,-6220,7116
2.486,7116,-6121,7116
2.487,7116,-6021,7116
2.488,7116,-6270,7116
2.489,7116,-6220,7116
2.49,7116,-6369,7116
2.491,7116,-6021,7116
2.492,7116,-5971,7116
2.493,7116,-6270,7116
2.494,7116,-6170,7116
2.495,7116,-6469,7116
2.496,7116,-6270,7116
2.497,7116,-5872,7116
2.498,7116,-6170,7116
2.499,7116,-5922,7116
2.5,7116,-6270,7116
2.501,7116,-6170,7116
2.5020000000000002,7116,-6071,7116
2.503,7116,-6270,7116
2.504,7116,-6369,7116
2.505,7116,-6469,7116
2.5060000000000002,7116,-6419,7116
2.507,7116,-6320,7116
2.508,7116,-6270,7116
2.509,7116,-6170,7116
2.5100000000000002,7116,-6320,7116
2.511,7116,-6270,7116
2.512,7116,-6170,7116
2.513,7116,-6519,7116
2.5140000000000002,7116,-6170,7116
2.515,7116,-6220,7116
2.516,7116,-6320,7116
2.517,7116,-6170,7116
2.5180000000000002,7116,-6569,7116
2.519,7116,-6369,7116
2.52,7116,-6569,7116
2.521,7116,-6320,7116
2.5220000000000002,7116,-6369,7116
2.523,7116,-6121,7116
2.524,7116,-6071,7116
2.525,7116,-6170,7116
2.5260000000000002,7116,-6419,7116
2.527,7116,-6569,7116
2.528,7116,-6320,7116
2.529,7116,-6220,7116
2.5300000000000002,7116,-6220,7116
2.531,7116,-6369,7116
2.532,7116,-6369,7116
2.533,7116,-6220,7116
2.5340000000000003,7116,-6369,7116
2.535,7116,-6469,7116
2.536,7116,-6320,7116
2.537,7116,-6320,7116
2.5380000000000003,7116,-6469,7116
2.539,7116,-6220,7116
2.54,7116,-6469,7116
2.541,7116,-6121,7116
2.5420000000000003,7116,-6369,7116
2.543,7116,-6469,7116
2.544,7116,-6270,7116
2.545,7116,-6270,7116
2.5460000000000003,7116,-6270,7116
2.547,7116,-6320,7116
2.548,7116,-6021,7116
2.549,7116,-6270,7116
2.5500000000000003,7116,-6519,7116
2.551,7116,-6419,7116
2.552,7116,-6419,7116
2.553,7116,-6220,7116
2.5540000000000003,7116,-6320,7116
2.555,7116,-6220,7116
2.556,7116,-6618,7116
2.557,7116,-6469,7116
2.5580000000000003,7116,-6469,7116
2.559,7116,-6519,7116
2.56,7116,-6170,7116
2.561,7116,-6320,7116
2.562,7116,-6270,7116
2.563,7116,-6270,7116
2.564,7116,-6618,7116
2.565,7116,-6220,7116
2.566,7116,-6419,7116
2.567,7116,-6270,7116
2.568,7116,-6220,7116
2.569,7116,-6369,7116
2.57,7116,-6170,7116
2.571,7116,-6270,7116
2.572,7116,-6170,7116
2.573,7116,-6469,7116
2.574,7116,-6320,7116
2.575,7116,-6320,7116
2.576,7116,-6220,7116
2.577,7116,-6369,7116
2.578,7116,-6419,7116
2.579,7116,-6220,7116
2.58,7116,-6170,7116
2.581,7116,-6320,7116
2.582,7116,-6469,7116
2.583,7116,-6369,7116
2.584,7116,-6419,7116
2.585,7116,-6569,7116
2.586,7116,-6220,7116
2.587,7116,-6469,7116
2.588,7116,-6320,7116
2.589,7116,-6170,7116
2.59,7116,-6369,7116
2.591,7116,-6320,7116
2.592,7116,-6121,7116
2.593,7116,-6618,7116
2.594,7116,-6519,7116
2.595,7116,-6170,7116
2.596,7116,-5822,7116
2.597,7116,-6569,7116
2.598,7116,-6369,7116
2.599,7116,-6220,7116
2.6,7116,-6270,7116
2.601,7116,-6320,7116
2.602,7116,-6519,7116
2.603,7116,-6519,7116
2.604,7116,-6021,7116
2.605,7116,-6419,7116
2.606,7116,-6469,7116
2.607,7116,-6369,7116
2.608,7116,-6220,7116
2.609,7116,-6170,7116
2.61,7116,-6121,7116
2.611,7116,-6419,7116
2.612,7116,-6270,7116
2.613,7116,-6021,7116
2.614,7116,-6419,7116
2.615,7116,-6270,7116
2.616,7116,-6469,7116
2.617,7116,-6419,7116
2.618,7116,-6170,7116
2.619,7116,-6320,7116
2.62,7116,-6369,7116
2.621,7116,-6618,7116
2.622,7116,-6170,7116
2.623,7116,-6668,7116
2.624,7116,-6419,7116
2.625,7116,-6170,7116
2.626,7116,-6220,7116
2.6270000000000002,7116,-6270,7116
2.628,7116,-6419,7116
2.629,7116,-6369,7116
2.63,7116,-6369,7116
2.6310000000000002,7116,-6220,7116
2.632,7116,-6419,7116
2.633,7116,-6419,7116
2.634,7116,-6469,7116
2.6350000000000002,7116,-6569,7116
2.636,7116,-6817,7116
2.637,7116,-6320,7116
2.638,7116,-6071,7116
2.6390000000000002,7116,-6170,7116
2.64,7116,-6270,7116
2.641,7116,-6220,7116
2.642,7116,-6469,7116
2.6430000000000002,7116,-6170,7116
2.644,7116,-6320,7116
2.645,7116,-6320,7116
2.646,7116,-6220,7116
2.6470000000000002,7116,-6170,7116
2.648,7116,-6519,7116
2.649,7116,-6419,7116
2.65,7116,-6270,7116
2.6510000000000002,7116,-5922,7116
2.652,7116,-6320,7116
2.653,7116,-6519,7116
2.654,7116,-6121,7116
2.6550000000000002,7116,-6220,7116
2.656,7116,-6419,7116
2.657,7116,-5922,7116
2.658,7116,-6021,7116
2.6590000000000003,7116,-5872,7116
2.66,7116,-5822,7116
2.661,7116,-5723,7116
2.662,7116,-5922,7116
2.6630000000000003,7066,-5523,7116
2.664,7116,-5673,7116
2.665,7066,-5474,7116
2.666,7066,-5723,7116
2.6670000000000003,6668,-5225,7116
2.668,6917,-5275,7116
2.669,6668,-5225,7116
2.67,6569,-5125,7116
2.6710000000000003,6419,-5026,7116
2.672,6569,-5026,7116
2.673,6270,-5026,7116
2.674,6170,-4727,6867
2.6750000000000003,6121,-4877,6867
2.676,6220,-4827,6867
2.677,5772,-4777,6569
2.678,6071,-4677,6569
2.6790000000000003,5573,-4727,6718
2.68,5573,-4578,6170
2.681,5523,-4478,6320
2.682,5324,-4230,6270
2.6830000000000003,5573,-4329,6121
2.684,5623,-4528,6170
2.685,5076,-4429,5971
2.686,5275,-4031,5723
2.6870000000000003,5076,-3931,5971
2.688,5225,-4130,5324
2.689,4877,-4279,5474
2.69,4877,-3931,5374
2.691,4628,-3931,5175
2.692,4877,-3931,4976
2.693,4329,-3931,4976
2.694,4528,-3732,5076
2.695,4230,-3483,5125
2.696,4230,-3583,4926
2.697,4379,-3583,4628
2.698,4080,-3583,4478
2.699,3981,-3384,4727
2.7,4031,-3284,4578
2.701,3931,-3334,4478
2.702,3782,-3035,4130
2.703,3583,-3234,4180
2.704,3533,-3135,4130
2.705,3384,-3035,3981
2.706,3334,-2985,4080
2.707,2985,-3234,3931
2.708,3135,-2786,3881
2.709,3035,-2538,3782
2.71,2985,-2836,3533
2.711,3184,-2985,3184
2.712,2936,-2587,3234
2.713,2637,-2488,3135
2.714,2637,-2637,3184
2.715,2338,-2438,2836
2.716,2488,-2239,2886
2.717,2338,-2338,2985
2.718,2139,-2289,2637
2.719,2289,-2488,2587
2.72,2189,-2139,2637
2.721,2040,-2090,2538
2.722,1791,-1990,2438
2.723,1741,-1841,2090
2.724,1741,-1940,2139
2.725,1692,-1990,2040
2.726,1542,-1692,1940
2.727,1542,-1642,1990
2.728,1343,-1692,1791
2.729,1542,-1841,1791
2.73,1194,-1592,1642
2.731,1045,-1492,1443
2.732,1343,-1244,1244
2.733,1094,-1343,1045
2.734,447,-1393,1144
2.735,945,-1194,1293
2.736,547,-1144,895
2.737,646,-746,746
2.738,646,-945,597
2.739,597,-1343,846
2.74,696,-1045,746
2.741,547,-1144,746
2.742,398,-995,646
2.743,348,-945,497
2.744,298,-1045,547
2.745,248,-995,149
2.746,696,-895,447
2.747,398,-1045,348
2.748,149,-696,149
2.749,49,-547,547
2.75,248,-696,547
2.751,149,-846,398
2.7520000000000002,248,-597,298
2.753,-149,-746,199
2.754,199,-696,199
2.755,-298,-696,99
2.7560000000000002,-99,-796,99
2.757,-199,-497,-99
2.758,-298,-846,49
2.759,-149,-746,49
2.7600000000000002,-248,-497,49
2.761,-99,-746,99
2.762,-447,-646,-99
2.763,-149,-547,-248
2.7640000000000002,-398,-597,0
2.765,-398,-547,-149
2.766,-398,-398,-447
2.767,-895,-298,-199
2.7680000000000002,-547,-149,-497
2.769,-199,-746,-298
2.77,-447,-497,-646
2.771,-547,-398,-199
2.7720000000000002,-597,-248,-398
2.773,-497,-398,-497
2.774,-497,-49,-447
2.775,-547,-398,-447
2.7760000000000002,-646,-199,-497
2.777,-846,-149,-447
2.778,-895,-298,-646
2.779,-945,-447,-995
2.7800000000000002,-895,-248,-746
2.781,-746,-248,-796
2.782,-846,99,-1045
2.783,-895,0,-796
2.7840000000000003,-895,-199,-597
2.785,-1144,-99,-945
2.786,-945,-298,-796
2.787,-995,-49,-1144
2.7880000000000003,-1045,149,-1194
2.789,-1194,49,-945
2.79,-1293,248,-1194
2.791,-1244,49,-1244
2.7920000000000003,-1244,99,-1443
2.793,-1194,-99,-1094
2.794,-995,49,-1094
2.795,-1393,49,-1045
2.7960000000000003,-1542,149,-1393
2.797,-1443,99,-1244
2.798,-1443,-99,-995
2.799,-1542,199,-1492
2.8000000000000003,-1393,49,-1293
2.801,-1542,49,-1741
2.802,-1492,298,-1194
2.803,-1293,298,-1293
2.8040000000000003,-1542,348,-1343
2.805,-1542,398,-1094
2.806,-1343,0,-1841
2.807,-1791,248,-1542
2.8080000000000003,-1492,248,-1592
2.809,-1393,398,-1592
2.81,-1642,597,-1443
2.811,-1542,646,-1492
2.8120000000000003,-1592,398,-1940
2.813,-1741,348,-1791
2.814,-1542,298,-1592
2.815,-1940,497,-1443
2.816,-1940,298,-1841
2.817,-1940,796,-1741
2.818,-1990,398,-2040
2.819,-2189,447,-1642
2.82,-2040,497,-1791
2.821,-1841,696,-2090
2.822,-2040,597,-1741
2.823,-2338,945,-1492
2.824,-1841,547,-2090
2.825,-2040,696,-1990
2.826,-1891,547,-2139
2.827,-2239,497,-2289
2.828,-2139,597,-1990
2.829,-2040,597,-2090
2.83,-2040,547,-2189
2.831,-2289,895,-2040
2.832,-2289,846,-2189
2.833,-2488,447,-2189
2.834,-2538,846,-2189
2.835,-2289,696,-2289
2.836,-2587,746,-2438
2.837,-2338,796,-2289
2.838,-2040,796,-2289
2.839,-2289,945,-2637
2.84,-2338,895,-2239
2.841,-2587,646,-2338
2.842,-2587,646,-2139
2.843,-2388,846,-2239
2.844,-2488,1045,-2239
2.845,-2687,945,-2388
2.846,-2538,995,-2587
2.847,-2587,1045,-2687
2.848,-2438,1244,-2388
2.849,-2538,1045,-2936
2.85,-2687,945,-2289
2.851,-2637,945,-2488
2.852,-2737,1094,-2488
2.853,-2637,1194,-2737
2.854,-2438,995,-2737
2.855,-2538,746,-2786
2.856,-2538,1094,-2587
2.857,-2886,846,-2637
2.858,-2786,1194,-2737
2.859,-2637,1094,-2737
2.86,-2488,1343,-2786
2.861,-2786,1194,-2637
2.862,-2587,1094,-2936
2.863,-2637,1045,-2786
2.864,-2587,1144,-2886
2.865,-2687,796,-2637
2.866,-2687,1343,-2886
2.867,-2388,945,-2488
2.868,-2737,746,-2538
2.869,-2587,1144,-3035
2.87,-2637,1492,-2587
2.871,-2985,995,-2836
2.872,-2538,1194,-2985
2.873,-2786,1045,-2886
2.874,-2587,1144,-2687
2.875,-2985,1244,-2936
2.876,-2587,1393,-2936
2.8770000000000002,-2936,1293,-2786
2.878,-2836,1045,-2886
2.879,-2687,1293,-2786
2.88,-2836,1244,-2786
2.8810000000000002,-3035,1244,-3234
2.882,-2687,1194,-2936
2.883,-2936,1045,-2936
2.884,-2836,846,-2936
2.8850000000000002,-2587,1293,-2985
2.886,-3234,1094,-3035
2.887,-2687,1293,-3135
2.888,-2836,1492,-2936
2.8890000000000002,-2687,1194,-2985
2.89,-3184,1144,-2985
2.891,-2637,1393,-2936
2.892,-3085,1393,-2886
2.8930000000000002,-3035,1343,-3135
2.894,-2836,1045,-2836
2.895,-2985,945,-3135
2.896,-2936,1244,-3384
2.8970000000000002,-2936,1244,-3284
2.898,-3085,1293,-3085
2.899,-2886,1443,-3135
2.9,-7116,7116,-7116
2.9010000000000002,-3334,1692,-3384
2.902,-3433,1343,-3682
2.903,-3234,1244,-3334
2.904,-3234,1293,-3284
2.9050000000000002,-3035,1492,-3284
2.906,-3234,1542,-3533
2.907,-3433,1244,-3483
2.908,-3334,1542,-3184
2.9090000000000003,-3384,1592,-3384
2.91,-3632,1244,-3583
2.911,-3334,1542,-3583
2.912,-3583,1542,-3483
2.9130000000000003,-3433,1244,-3682
2.914,-3184,1542,-3632
2.915,-3483,1592,-3682
2.916,-3334,1492,-3533
2.9170000000000003,-3583,1343,-3583
2.918,-3433,1492,-3583
2.919,-3483,1791,-3632
2.92,-3284,1592,-3334
2.9210000000000003,-3384,1443,-3483
2.922,-3284,1692,-3433
2.923,-3334,1741,-3782
2.924,-3533,1592,-3782
2.9250000000000003,-3234,1542,-3483
2.926,-3284,1393,-3384
2.927,-2886,1343,-3732
2.928,-3234,1592,-3384
2.9290000000000003,-3433,1244,-3433
2.93,-3234,1492,-3284
2.931,-3533,1343,-3384
2.932,-2985,1542,-3334
2.9330000000000003,-3334,1642,-3632
2.934,-3135,1492,-3483
2.935,-3234,1343,-3881
2.936,-3234,1343,-3583
2.9370000000000003,-3433,1194,-3533
2.938,-3334,1492,-3433
2.939,-3334,1443,-3583
2.94,-3533,1244,-3782
2.9410000000000003,-3135,1592,-3433
2.942,-3035,1244,-3433
2.943,-3334,1542,-3583
2.944,-2936,1293,-3483
2.945,-3384,1244,-3384
2.946,-3483,1244,-3632
2.947,-3483,1443,-3533
2.948,-3135,1492,-3384
2.949,-3433,1144,-3135
2.95,-3284,1343,-3284
2.951,-3384,1542,-3334
2.952,-3334,1443,-3533
2.953,-3085,1194,-3831
2.954,-3184,1393,-2985
2.955,-3334,1094,-3533
2.956,-3085,1244,-3384
2.957,-3184,1791,-3334
2.958,-3184,1492,-3533
2.959,-3234,1343,-3483
2.96,-3135,1443,-3284
2.961,-3085,1045,-3234
2.962,-3334,1443,-3483
2.963,-3433,1592,-3632
2.964,-3035,1343,-3384
2.965,-3234,1393,-3682
2.966,-3433,1443,-3184
2.967,-2936,1293,-3433
2.968,-2985,1393,-3284
2.969,-3284,995,-3334
2.97,-2936,1293,-3334
2.971,-3085,1343,-3433
2.972,-3284,1244,-3483
2.973,-3433,1194,-3234
2.974,-3135,1443,-3184
2.975,-3184,1045,-3433
2.976,-3035,1492,-3085
2.977,-3234,1244,-3284
2.978,-3135,1393,-3483
2.979,-2985,1293,-3583
2.98,-3135,1393,-3184
2.981,-3135,1393,-3234
2.982,-3135,1343,-3284
2.983,-3184,1343,-3035
2.984,-3433,1841,-3632
2.985,-3533,1642,-3483
2.986,-3433,1592,-3533
2.987,-3234,1343,-3533
2.988,-3334,1393,-3483
2.989,-3483,1343,-3732
2.99,-3334,1144,-3234
2.991,-3085,1194,-3433
2.992,-3433,1393,-3433
2.993,-3433,1393,-3184
2.994,-3234,1592,-3583
2.995,-3035,1443,-3433
2.996,-3334,1343,-3433
2.997,-3334,1492,-3583
2.998,-3184,1592,-3682
2.999,-3234,1642,-3533
3.0,-3433,1443,-3483
3.001,-3334,1741,-3384
3.0020000000000002,-3184,1144,-3284
3.003,-3234,1492,-3334
3.004,-3284,1542,-3384
3.005,-3384,1343,-3533
3.0060000000000002,-3234,1542,-3284
3.007,-3184,1393,-3384
3.008,-3234,1244,-3284
3.009,-3085,1393,-3533
3.0100000000000002,-3035,1443,-3533
3.011,-3184,1542,-3085
3.012,-3234,1293,-3533
3.013,-3234,1293,-3085
3.0140000000000002,-3234,1741,-3433
3.015,-3085,1194,-3533
3.016,-3184,1343,-3334
3.017,-3533,1393,-3334
3.0180000000000002,-2936,1443,-3583
3.019,-3184,1443,-3483
3.02,-3135,1393,-3334
3.021,-3384,1343,-3334
3.0220000000000002,-3234,1144,-3384
3.023,-3184,1393,-3234
3.024,-3184,1293,-3384
3.025,-3384,1393,-3632
3.0260000000000002,-3334,1443,-3384
3.027,-3085,1393,-3284
3.028,-3135,1144,-3433
3.029,-3184,1293,-3284
3.0300000000000002,-3184,1244,-3483
3.031,-3135,1393,-3483
3.032,-3135,1592,-3483
3.033,-3334,1343,-3234
3.0340000000000003,-3184,1293,-3483
3.035,-3234,1343,-3583
3.036,-3184,1343,-3384
3.037,-3135,1542,-3384
3.0380000000000003,-2936,1293,-3284
3.039,-3284,1194,-3732
3.04,-3234,1443,-3284
3.041,-3284,1443,-3334
3.0420000000000003,-3284,1393,-2886
3.043,-3135,1293,-3135
3.044,-3234,1144,-3433
3.045,-2886,1542,-3433
3.0460000000000003,-3284,1393,-3284
3.047,-3284,1393,-3334
3.048,-3035,1293,-3433
3.049,-3035,1343,-3384
3.0500000000000003,-3035,1791,-3234
3.051,-3135,1393,-3433
3.052,-2985,1244,-3334
3.053,-3184,1343,-3334
3.0540000000000003,-3234,1443,-3533
3.055,-3184,1244,-3284
3.056,-3284,1244,-3284
3.057,-3384,1393,-2985
3.0580000000000003,-3085,1194,-3433
3.059,-3085,1144,-3533
3.06,-3184,1542,-3433
3.061,-3483,1542,-3583
3.0620000000000003,-3184,1443,-3433
3.063,-3035,1393,-3384
3.064,-3284,1791,-3433
3.065,-3284,1443,-3334
3.0660000000000003,-3135,1144,-3732
3.067,-2985,1343,-3284
3.068,-3284,1343,-3384
3.069,-3284,1293,-3533
3.0700000000000003,-3284,1343,-3483
3.071,-2936,1741,-3433
3.072,-3184,1393,-3433
3.073,-3334,1393,-3483
3.074,-3384,1542,-3732
3.075,-3184,1343,-3334
3.076,-3334,1343,-3483
3.077,-3184,1393,-3284
3.078,-3384,1144,-3384
3.079,-3384,1194,-3384
3.08,-3135,1492,-3483
3.081,-3184,1293,-3334
3.082,-3334,1592,-3483
3.083,-3035,1343,-3483
3.084,-3334,1642,-3533
3.085,-3334,1542,-3234
3.086,-3234,1542,-3583
3.087,-3035,1393,-3184
3.088,-3135,1343,-3483
3.089,-3433,1542,-3135
3.09,-3284,1492,-3184
3.091,-2985,1542,-3483
3.092,-3234,1343,-3284
3.093,-3184,1642,-3184
3.094,-3284,1144,-3533
3.095,-2936,1244,-3284
3.096,-3085,1492,-3184
3.097,-3384,1443,-3284
3.098,-3433,1244,-3433
3.099,-3234,1343,-3483
3.1,-3334,1492,-3334
3.101,-3334,1194,-3284
3.102,-3184,1194,-3682
3.103,-3184,1542,-3085
3.104,-3135,1393,-3284
3.105,-3334,1194,-3583
3.106,-2886,1492,-3135
3.107,-2985,1393,-3433
3.108,-3234,1443,-3533
3.109,-3334,1194,-2985
3.11,-3184,1144,-3284
3.111,-3234,1244,-3284
3.112,-3284,1293,-3384
3.113,-3135,1492,-3135
3.114,-3135,1343,-3234
3.115,-3284,1343,-3284
3.116,-3035,1443,-3483
3.117,-3085,1343,-3284
3.118,-3483,1144,-3433
3.119,-3085,1293,-3135
3.12,-3035,1343,-3284
3.121,-3483,1443,-3135
3.122,-2886,1293,-3632
3.123,-2985,1293,-3632
3.124,-3135,1393,-3284
3.125,-3085,1144,-3284
3.126,-3035,1194,-3184
3.1270000000000002,-3135,1045,-3135
3.128,-3433,1293,-3483
3.129,-3085,1293,-3284
3.13,-3284,1542,-3433
3.1310000000000002,-3085,1343,-3433
3.132,-3085,1144,-3284
3.133,-3035,1393,-3234
3.134,-2886,1443,-3284
3.1350000000000002,-2936,1144,-3483
3.136,-3234,1592,-3583
3.137,-3284,1343,-3184
3.138,-3184,1492,-3533
3.1390000000000002,-3184,1194,-3483
3.14,-3234,1592,-3433
3.141,-3234,1293,-3433
3.142,-3284,1542,-3384
3.1430000000000002,-3334,1144,-3533
3.144,-3284,1592,-3483
3.145,-3135,1642,-3782
3.146,-3433,1443,-3334
3.1470000000000002,-3433,1144,-3135
3.148,-3234,1293,-3184
3.149,-3234,1343,-3284
3.15,-3085,1492,-3533
3.1510000000000002,-3284,1443,-3533
3.152,-3433,1492,-3135
3.153,-3533,1293,-3334
3.154,-3035,1393,-3334
3.1550000000000002,-3533,1592,-3483
3.156,-3035,1194,-3334
3.157,-3085,1393,-3433
3.158,-3184,1194,-3384
3.1590000000000003,-3035,945,-3384
3.16,-3135,1592,-3483
3.161,-2985,1741,-3384
3.162,-3135,1144,-3384
3.1630000000000003,-2985,1293,-3085
3.164,-3135,1244,-3533
3.165,-3334,1542,-3632
3.166,-3135,1194,-2985
3.1670000000000003,-3184,1443,-3234
3.168,-3135,1293,-3284
3.169,-3234,1443,-3583
3.17,-3284,1244,-3384
3.1710000000000003,-3085,1194,-3334
3.172,-3334,1542,-3384
3.173,-2985,1244,-3184
3.174,-3384,1393,-3284
3.1750000000000003,-3334,1144,-3384
3.176,-2936,1293,-3384
3.177,-2836,1144,-3384
3.178,-3284,1443,-3035
3.1790000000000003,-3334,1542,-3433
3.18,-3135,1343,-3085
3.181,-3334,1343,-3234
3.182,-3284,1293,-3334
3.1830000000000003,-3334,1293,-3384
3.184,-3284,1144,-3583
3.185,-2985,1244,-3234
3.186,-3184,1293,-3483
3.1870000000000003,-3284,1194,-3135
3.188,-3234,1492,-3184
3.189,-3035,1293,-3334
3.19,-3035,1343,-3085
3.1910000000000003,-3234,1542,-3284
3.192,-2985,1393,-3135
3.193,-3334,995,-3184
3.194,-3184,1244,-3433
3.1950000000000003,-2985,1542,-3334
3.196,-3085,1492,-3234
3.197,-3384,1443,-3284
3.198,-2985,1492,-3184
3.1990000000000003,-2936,1592,-3135
3.2,-3284,1293,-3184
3.201,-3334,1542,-3184
3.202,-2985,1343,-3085
3.203,-2985,1094,-3085
3.204,-3035,1293,-3433
3.205,-3234,1393,-3234
3.206,-3334,1343,-3384
3.207,-3334,1393,-3433
3.208,-3035,1244,-2985
3.209,-3234,1343,-3433
3.21,-3184,1443,-3433
3.211,-3035,1542,-3533
3.212,-2886,1244,-3184
3.213,-2936,1393,-3135
3.214,-3284,1293,-3135
3.215,-3184,1244,-3035
3.216,-2936,1045,-3035
3.217,-3085,1144,-3184
3.218,-2886,1094,-3085
3.219,-3234,1393,-2985
3.22,-3135,1343,-3334
3.221,-3234,945,-3284
3.222,-3085,1244,-3284
3.223,-2985,1443,-3284
3.224,-3135,1194,-2985
3.225,-2985,1194,-3384
3.226,-3035,1094,-3135
3.227,-2936,1343,-3284
3.228,-3035,1094,-3433
3.229,-3035,1393,-3433
3.23,-3184,1293,-3433
3.231,-2936,1244,-3234
3.232,-3334,1542,-3184
3.233,-3035,1443,-3284
3.234,-3035,1293,-3483
3.235,-2985,1293,-3035
3.236,-3085,1244,-3433
3.237,-3035,1343,-3632
3.238,-2836,1343,-3184
3.239,-3384,1293,-3284
3.24,-3035,1443,-3284
3.241,-3035,1492,-3184
3.242,-3234,1244,-3135
3.243,-3035,1492,-3035
3.244,-3234,1393,-3085
3.245,-3085,1094,-3234
3.246,-2836,1393,-3184
3.247,-3035,1393,-3433
3.248,-3234,1343,-3433
3.249,-3184,1244,-3284
3.25,-3085,1194,-3234
3.251,-2985,1592,-3035
3.2520000000000002,-2836,1492,-3135
3.253,-3334,1343,-3234
3.254,-3085,1393,-3135
3.255,-2985,995,-3284
3.2560000000000002,-2985,1194,-3135
3.257,-3035,1443,-3234
3.258,-3085,1393,-3384
3.259,-2836,1443,-3334
3.2600000000000002,-2985,1592,-3085
3.261,-3035,1343,-3334
3.262,-3085,1194,-3184
3.263,-3135,1393,-3334
3.2640000000000002,-2936,1343,-3184
3.265,-3184,1144,-3384
3.266,-3284,1244,-3234
3.267,-3284,1343,-3384
3.2680000000000002,-3184,1343,-3433
3.269,-3135,1443,-3035
3.27,-3085,1393,-3334
3.271,-3184,1045,-3334
3.2720000000000002,-2936,1293,-3384
3.273,-3135,1542,-3334
3.274,-3334,1443,-3384
3.275,-3035,1144,-3234
3.2760000000000002,-2936,1443,-3234
3.277,-3085,1194,-3334
3.278,-3035,1592,-3632
3.279,-3085,1492,-3284
3.2800000000000002,-3433,1542,-3483
3.281,-2886,1443,-3284
3.282,-3085,1194,-3334
3.283,-3085,1393,-3284
3.2840000000000003,-3284,995,-3384
3.285,-3234,1244,-3284
3.286,-3035,1492,-3184
3.287,-3085,1293,-3035
3.2880000000000003,-3135,1443,-3135
3.289,-2886,1393,-3632
3.29,-3284,1244,-3433
3.291,-3035,1542,-3284
3.2920000000000003,-2886,945,-3433
3.293,-2786,1293,-3284
3.294,-3085,1393,-3184
3.295,-3184,1393,-3284
3.2960000000000003,-3184,1194,-2936
3.297,-3184,1244,-3433
3.298,-3035,1592,-2886
3.299,-3184,995,-3234
3.3000000000000003,-3085,1144,-3433
3.301,-3085,1343,-3234
3.302,-3334,1393,-3732
3.303,-2886,1194,-3284
3.3040000000000003,-2936,1045,-3184
3.305,-3184,1393,-2985
3.306,-2985,1443,-3184
3.307,-3135,1194,-3184
3.3080000000000003,-3135,1293,-3284
3.309,-2737,995,-3135
3.31,-2886,1343,-3035
3.311,-3284,1343,-3085
3.3120000000000003,-3085,1244,-3483
3.313,-3284,1492,-3085
3.314,-3085,1045,-3135
3.315,-2737,1642,-3284
3.3160000000000003,-3135,1293,-3384
3.317,-3284,1194,-3184
3.318,-3135,1343,-3085
3.319,-3334,1094,-3284
3.3200000000000003,-2985,1642,-3135
3.321,-3234,1194,-3433
3.322,-3184,1194,-3184
3.323,-2985,1094,-3135
3.3240000000000003,-3135,1393,-3284
3.325,-2886,1293,-2985
3.326,-2985,1244,-3135
3.327,-3085,1244,-3384
3.3280000000000003,-2985,1293,-3632
3.329,-3632,1443,-3135
3.33,-2936,1393,-3334
3.331,-3184,1293,-3334
3.332,-3334,1343,-2985
3.333,-2985,1244,-3184
3.334,-3135,1443,-3284
3.335,-2985,1343,-3483
3.336,-2936,1194,-3035
3.337,-3284,1443,-3284
3.338,-2886,1144,-3334
3.339,-3284,1393,-3135
3.34,-3135,1443,-3384
3.341,-3234,1244,-3284
3.342,-2985,1244,-3184
3.343,-3135,1592,-3184
3.344,-3085,1393,-3184
3.345,-3184,1094,-3583
3.346,-3035,1542,-3483
3.347,-3035,1293,-3085
3.348,-3035,1343,-3334
3.349,-3184,1293,-3035
3.35,-3184,1094,-3384
3.351,-3334,1244,-3284
3.352,-3184,1194,-3184
3.353,-3085,1393,-3234
3.354,-2687,1343,-3035
3.355,-2886,1393,-3184
3.356,-2886,1492,-3234
3.357,-3085,1393,-3284
3.358,-3234,1443,-3184
3.359,-3234,1393,-3483
3.36,-2985,1293,-3433
3.361,-3184,1244,-3334
3.362,-2936,1592,-3184
3.363,-3085,1293,-3234
3.364,-3284,1144,-3334
3.365,-3184,1293,-3184
3.366,-2936,1293,-3284
3.367,-3234,1244,-3284
3.368,-3334,1144,-3184
3.369,-2985,1094,-3234
3.37,-2985,1443,-3334
3.371,-2687,1393,-3135
3.372,-3135,945,-3284
3.373,-2936,1393,-2985
3.374,-2836,1144,-3184
3.375,-2936,1244,-3184
3.376,-3035,1393,-3035
3.3770000000000002,-2936,1094,-3284
3.378,-2936,1293,-2886
3.379,-2886,1194,-3184
3.38,-2936,1144,-3184
3.3810000000000002,-3085,1443,-3035
3.382,-3085,1244,-3334
3.383,-2786,1443,-3334
3.384,-3035,945,-3085
3.3850000000000002,-3184,1045,-3085
3.386,-2985,1194,-3184
3.387,-3085,1244,-3085
3.388,-3035,1343,-3384
3.3890000000000002,-3035,1194,-3085
3.39,-2985,1542,-2985
3.391,-2985,1144,-3334
3.392,-3184,1443,-3284
3.3930000000000002,-3135,1592,-3035
3.394,-3035,1293,-3085
3.395,-2886,1293,-3135
3.396,-2985,1194,-3234
3.3970000000000002,-2936,1393,-3135
3.398,-2985,1244,-3284
3.399,-2886,1194,-3284
3.4,-2886,1244,-3035
3.4010000000000002,-3184,1393,-3184
3.402,-3085,1492,-3234
3.403,-2836,1244,-3234
3.404,-2836,1393,-3184
3.4050000000000002,-3035,1393,-3234
3.406,-3184,1592,-3384
3.407,-2985,1393,-3284
3.408,-3184,1393,-3234
3.4090000000000003,-3135,1393,-3284
3.41,-2836,1343,-3334
3.411,-2886,895,-3433
3.412,-3184,1293,-2737
3.4130000000000003,-3234,1443,-3334
3.414,-2936,1194,-3234
3.415,-3135,1094,-3334
3.416,-3085,1293,-3085
3.4170000000000003,-3184,1244,-3184
3.418,-2985,1244,-3135
3.419,-2886,1144,-2985
3.42,-2886,1293,-3433
3.4210000000000003,-3284,1194,-3234
3.422,-2836,1393,-3234
3.423,-2886,1393,-3433
3.424,-2886,1144,-3284
3.4250000000000003,-2936,1144,-3284
3.426,-3184,1343,-2886
3.427,-2737,995,-3234
3.428,-2886,1194,-3284
3.4290000000000003,-3035,1144,-3533
3.43,-3334,1293,-3234
3.431,-3035,1293,-3334
3.432,-3135,1244,-2985
3.4330000000000003,-2985,1094,-3035
3.434,-2936,1692,-3035
3.435,-3085,1194,-3284
3.436,-3433,1443,-3184
3.4370000000000003,-3035,1293,-3184
3.438,-3433,1144,-3234
3.439,-3035,1144,-3583
3.44,-3184,1293,-3334
3.4410000000000003,-2886,1443,-3334
3.442,-3184,1293,-3135
3.443,-3135,1194,-3334
3.444,-2936,1393,-3135
3.4450000000000003,-3184,1443,-3184
3.446,-3085,1492,-3135
3.447,-3035,1293,-2985
3.448,-2786,1343,-3135
3.4490000000000003,-3135,1542,-3135
3.45,-2985,1194,-3334
3.451,-2737,1244,-3184
3.452,-3085,1144,-3035
3.4530000000000003,-3135,1194,-3184
3.454,-2886,895,-3085
3.455,-2936,1293,-3135
3.456,-2737,1194,-3184
3.457,-2936,1393,-3234
3.458,-2886,945,-3334
3.459,-3035,995,-3184
3.46,-2936,1244,-3035
3.461,-3085,1094,-3334
3.462,-3135,1293,-2886
3.463,-2836,1244,-3085
3.464,-3085,1194,-3234
3.465,-2836,1393,-3035
3.466,-2737,1194,-3085
3.467,-3035,895,-3632
3.468,-2836,1244,-3085
3.469,-2936,1144,-2985
3.47,-3135,1144,-2936
3.471,-2936,1343,-3184
3.472,-3085,1045,-3384
3.473,-2886,1194,-2936
3.474,-2786,1144,-3135
3.475,-2836,1293,-3334
3.476,-2985,1343,-2985
3.477,-2886,1194,-3334
3.478,-2786,995,-3184
3.479,-3035,1343,-3234
3.48,-2886,1144,-3184
3.481,-3085,1443,-3184
3.482,-3184,1144,-3085
3.483,-3184,1393,-3135
3.484,-2985,1194,-3085
3.485,-3184,1144,-3035
3.486,-2786,1443,-3284
3.487,-3284,945,-3334
3.488,-2786,1492,-2985
3.489,-3483,1393,-3184
3.49,-3085,1393,-3135
3.491,-2985,1293,-3334
3.492,-2985,1293,-3284
3.493,-3135,1343,-3135
3.494,-2786,1194,-3085
3.495,-2985,1244,-3284
3.496,-2886,995,-3135
3.497,-3135,1343,-3184
3.498,-3184,1244,-2985
3.499,-2985,1094,-3234
3.5,-2985,1144,-3135
3.501,-3085,1194,-3433
3.5020000000000002,-2985,1094,-3135
3.503,-3135,1045,-2886
3.504,-3035,895,-3035
3.505,-3035,1393,-2936
3.5060000000000002,-3035,945,-3583
3.507,-3035,1542,-3334
3.508,-3184,1542,-3184
3.509,-3085,1343,-2936
3.5100000000000002,-3035,1443,-3284
3.511,-3135,1144,-3184
3.512,-3234,1393,-2985
3.513,-2936,1045,-3035
3.5140000000000002,-2786,1343,-3334
3.515,-2985,1741,-3384
3.516,-3035,1293,-2687
3.517,-2936,1244,-3234
3.5180000000000002,-2985,1094,-3135
3.519,-2936,1144,-3085
3.52,-3035,1343,-3135
3.521,-2687,1293,-3284
3.5220000000000002,-2985,1094,-3483
3.523,-2836,1343,-3234
3.524,-3234,1244,-3234
3.525,-2637,1492,-3085
3.5260000000000002,-2786,1343,-3284
3.527,-2936,1443,-3334
3.528,-2985,1343,-3483
3.529,-2786,995,-3035
3.5300000000000002,-3135,1144,-2936
3.531,-2836,1244,-3135
3.532,-3085,1194,-3135
3.533,-2985,1094,-3085
3.5340000000000003,-2886,1244,-3135
3.535,-2985,1244,-3035
3.536,-3035,1094,-2737
3.537,-2886,1244,-2936
3.5380000000000003,-2737,1045,-3184
3.539,-2936,1293,-3135
3.54,-2786,1443,-2936
3.541,-3234,1144,-3184
3.5420000000000003,-2786,1293,-2985
3.543,-2936,1194,-2985
3.544,-2936,1144,-3135
3.545,-2936,1045,-3135
3.5460000000000003,-2737,945,-3035
3.547,-2786,1094,-3284
3.548,-2786,1194,-3483
3.549,-2936,1343,-3384
3.5500000000000003,-3035,1144,-3234
3.551,-2936,1492,-3035
3.552,-2936,1443,-2985
3.553,-2886,945,-3085
3.5540000000000003,-2687,1194,-3085
3.555,-2836,995,-2786
3.556,-2836,1244,-3184
3.557,-3035,1244,-3035
3.5580000000000003,-3035,1244,-3135
3.559,-3234,1094,-2985
3.56,-3135,1393,-2936
3.561,-3085,1293,-2737
3.5620000000000003,-2836,1443,-2936
3.563,-2985,1144,-3384
3.564,-3135,1293,-3384
3.565,-3035,1194,-3284
3.5660000000000003,-2936,1244,-3334
3.567,-2985,1244,-3234
3.568,-3135,1194,-3433
3.569,-3085,1343,-3184
3.5700000000000003,-2488,1393,-3234
3.571,-2786,995,-3334
3.572,-3035,1045,-3234
3.573,-3085,1343,-3085
3.5740000000000003,-2786,1343,-3184
3.575,-3085,1045,-2936
3.576,-2836,1443,-3085
3.577,-3035,1144,-3384
3.5780000000000003,-2836,1194,-3334
3.579,-2886,1194,-3135
3.58,-3135,1293,-3035
3.581,-2985,1393,-3284
3.5820000000000003,-3035,1343,-2985
3.583,-2936,1343,-3085
3.584,-2985,1244,-3085
3.585,-2985,1343,-2985
3.586,-3135,1293,-3085
3.587,-3135,1244,-3085
3.588,-2886,1244,-3085
3.589,-3085,995,-3035
3.59,-3035,1045,-3085
3.591,-3035,995,-3234
3.592,-2936,1244,-3035
3.593,-2936,1144,-2985
3.594,-2886,1393,-3284
3.595,-3035,1542,-3433
3.596,-3135,1343,-3085
3.597,-2886,1244,-3135
3.598,-2886,1144,-3234
3.599,-2985,1443,-3035
3.6,-2936,1443,-2985
3.601,-2985,895,-3184
3.602,-3035,1144,-3135
3.603,-2936,1244,-3483
3.604,-2886,1194,-3035
3.605,-2786,1194,-3284
3.606,-3135,1094,-3384
3.607,-3085,1194,-3433
3.608,-3035,1443,-3085
3.609,-3085,1244,-3035
3.61,-2886,846,-3035
3.611,-2737,1244,-2737
3.612,-2936,1144,-2985
3.613,-2886,1094,-2985
3.614,-2388,1045,-3085
3.615,-2687,1293,-3135
3.616,-2538,1293,-3085
3.617,-2836,995,-2886
3.618,-2786,995,-3035
3.619,-2886,1144,-2936
3.62,-2886,1144,-2985
3.621,-3085,1144,-3135
3.622,-2936,1045,-3135
3.623,-2886,945,-3085
3.624,-2737,1094,-3085
3.625,-2538,1094,-3284
3.626,-2886,1045,-2886
3.6270000000000002,-2985,1194,-2886
3.628,-2886,1244,-3135
3.629,-2836,1045,-3234
3.63,-2836,1094,-3035
3.6310000000000002,-2886,1244,-3135
3.632,-2687,1343,-2985
3.633,-2836,1244,-2985
3.634,-2936,945,-3035
3.6350000000000002,-2985,995,-2886
3.636,-2836,1343,-2886
3.637,-2886,1094,-3035
3.638,-2936,1343,-3035
3.6390000000000002,-2886,1293,-2985
3.64,-2936,1094,-2985
3.641,-2886,1094,-2786
3.642,-2587,1244,-3184
3.6430000000000002,-2886,796,-2886
3.644,-2886,1244,-3035
3.645,-2886,1094,-2786
3.646,-2836,945,-3184
3.6470000000000002,-3085,1045,-2886
3.648,-2637,1343,-3035
3.649,-2687,995,-2936
3.65,-2886,1343,-2985
3.6510000000000002,-2936,1244,-2985
3.652,-2886,1045,-3334
3.653,-2886,1542,-2587
3.654,-2737,1542,-3085
3.6550000000000002,-2886,1144,-3334
3.656,-2886,1194,-2936
3.657,-2936,1194,-2985
3.658,-2886,1343,-3135
3.6590000000000003,-2936,1144,-2886
3.66,-2687,1393,-2936
3.661,-2985,995,-2985
3.662,-2985,1144,-2985
3.6630000000000003,-2836,1343,-2985
3.664,-2836,995,-2985
3.665,-3035,1144,-2886
3.666,-2786,1194,-3035
3.6670000000000003,-2836,1094,-2936
3.668,-2786,1094,-2886
3.669,-2936,1144,-3035
3.67,-2836,1045,-3234
3.6710000000000003,-2936,1244,-3035
3.672,-3035,1144,-3234
3.673,-2886,995,-2836
3.674,-2886,995,-3135
3.6750000000000003,-2936,1293,-3085
3.676,-2836,1144,-2836
3.677,-2737,1094,-2985
3.678,-2936,1244,-2786
3.6790000000000003,-2936,1244,-3035
3.68,-2786,1094,-2985
3.681,-2886,1144,-2936
3.682,-2886,1194,-2587
3.6830000000000003,-2886,895,-3334
3.684,-2985,1343,-3184
3.685,-2687,995,-2886
3.686,-2886,945,-2985
3.6870000000000003,-2836,1194,-2886
3.688,-2985,1194,-2886
3.689,-2836,1045,-3135
3.69,-2687,1194,-2936
3.6910000000000003,-2786,1343,-2985
3.692,-2786,945,-3035
3.693,-2886,1144,-2836
3.694,-2637,1194,-3135
3.6950000000000003,-2637,1194,-2786
3.696,-2637,1194,-2687
3.697,-2936,1094,-2886
3.698,-2886,1094,-2687
3.6990000000000003,-2886,995,-2587
3.7,-3035,1094,-2886
3.701,-3085,1144,-2985
3.702,-2936,1244,-2936
3.7030000000000003,-2637,1244,-2985
3.704,-2488,995,-2936
3.705,-3184,1094,-3184
3.706,-2836,895,-3184
3.7070000000000003,-2687,945,-3135
3.708,-2886,1045,-2737
3.709,-2886,846,-3035
3.71,-2836,1045,-2886
3.7110000000000003,-2637,1094,-2786
3.712,-3035,1194,-3035
3.713,-2737,1144,-3234
3.714,-3184,1094,-2836
3.715,-2836,1194,-3035
3.716,-3085,1045,-3184
3.717,-2737,1045,-3184
3.718,-2886,995,-2836
3.719,-3035,945,-2936
3.72,-2886,1244,-2936
3.721,-2687,1045,-3085
3.722,-3035,846,-3184
3.723,-2737,1045,-2985
3.724,-3184,1293,-3035
3.725,-2985,1293,-3085
3.726,-2687,1293,-2786
3.727,-2886,1094,-3184
3.728,-3085,1045,-3035
3.729,-2687,895,-3135
3.73,-2836,1094,-3135
3.731,-3085,1194,-2786
3.732,-2985,1293,-2836
3.733,-2886,1045,-3234
3.734,-2737,1144,-2737
3.735,-2836,945,-2985
3.736,-2985,1194,-3085
3.737,-2886,1244,-2886
3.738,-2836,846,-3184
3.739,-2438,1144,-2936
3.74,-2936,1343,-2687
3.741,-2886,1094,-3085
3.742,-2836,1194,-2886
3.743,-3035,995,-2985
3.744,-2786,1094,-2985
3.745,-2786,1244,-2886
3.746,-3035,945,-3085
3.747,-2737,1094,-3184
3.748,-2786,1094,-2836
3.749,-2886,1045,-2985
3.75,-2985,1094,-3035
3.751,-2737,1244,-3135
3.7520000000000002,-2488,1144,-3184
3.753,-2836,1343,-2886
3.754,-2936,1144,-3135
3.755,-2538,1045,-2687
3.7560000000000002,-2886,1293,-3035
3.757,-2786,1244,-2985
3.758,-2936,1045,-2786
3.759,-2786,995,-3035
3.7600000000000002,-2786,1144,-2786
3.761,-2388,1244,-3035
3.762,-2886,1094,-2985
3.763,-2587,1293,-2886
3.7640000000000002,-2836,1194,-3234
3.765,-2886,945,-3035
3.766,-2936,995,-2737
3.767,-2836,895,-3085
3.7680000000000002,-2886,1144,-2985
3.769,-2936,995,-3035
3.77,-3035,1094,-3035
3.771,-2687,1045,-2836
3.7720000000000002,-2786,1343,-3035
3.773,-2985,1094,-2886
3.774,-3184,945,-2985
3.775,-2985,1244,-2886
3.7760000000000002,-2687,1293,-2936
3.777,-3135,846,-2886
3.778,-2836,1094,-2886
3.779,-2687,1045,-2786
3.7800000000000002,-2737,1244,-2836
3.781,-2836,1293,-2737
3.782,-2836,1045,-2936
3.783,-2886,1094,-2936
3.7840000000000003,-2538,895,-2985
3.785,-2936,796,-2737
3.786,-2587,995,-2936
3.787,-2936,1194,-3085
3.7880000000000003,-2985,1144,-3284
3.789,-2985,1393,-2737
3.79,-2936,1144,-2836
3.791,-2737,1194,-2687
3.7920000000000003,-2587,1244,-2936
3.793,-2936,1293,-3234
3.794,-2836,945,-3135
3.795,-2637,1144,-3035
3.7960000000000003,-3085,846,-2886
3.797,-2936,846,-3135
3.798,-2687,1144,-2886
3.799,-2886,1045,-3035
3.8000000000000003,-2687,1045,-3184
3.801,-2936,1045,-2637
3.802,-2936,1094,-3135
3.803,-2886,1094,-2886
3.8040000000000003,-2836,1094,-2886
3.805,-2886,895,-2786
3.806,-2637,1045,-2786
3.807,-2637,1144,-3135
3.8080000000000003,-2886,1194,-3135
3.809,-2737,995,-2836
3.81,-2687,945,-2886
3.811,-3035,995,-2985
3.8120000000000003,-2985,1293,-2936
3.813,-2985,1144,-3085
3.814,-2388,1343,-2985
3.815,-2936,1293,-2936
3.8160000000000003,-2985,1094,-2886
3.817,-2886,1244,-2985
3.818,-2538,995,-3184
3.819,-2886,846,-2836
3.8200000000000003,-2786,1393,-3234
3.821,-2786,1045,-2985
3.822,-2836,1144,-2836
3.823,-2737,846,-2886
3.8240000000000003,-2737,1045,-2985
3.825,-2985,1094,-3085
3.826,-2836,1293,-2936
3.827,-2687,1144,-2737
3.8280000000000003,-2886,1094,-3035
3.829,-2936,1244,-2936
3.83,-2985,1293,-2985
3.831,-2637,1144,-2936
3.8320000000000003,-2936,1194,-2985
3.833,-2836,1293,-3135
3.834,-2936,995,-3085
3.835,-2637,1094,-2886
3.8360000000000003,-2538,1244,-3135
3.837,-2836,1094,-2886
3.838,-2737,995,-2936
3.839,-2886,945,-2737
3.84,-2886,1045,-2985
3.841,-2538,1144,-2786
3.842,-2886,995,-2786
3.843,-2786,1194,-2687
3.844,-2786,895,-2786
3.845,-3035,1244,-2886
3.846,-2737,1094,-3035
3.847,-2687,1045,-2488
3.848,-2687,1244,-3085
3.849,-2737,1244,-2985
3.85,-3184,846,-3085
3.851,-3135,1094,-3284
3.852,-2687,1293,-2587
3.853,-2637,1293,-3135
3.854,-2687,1393,-3085
3.855,-2836,1244,-2886
3.856,-2936,1045,-2936
3.857,-2687,1094,-2836
3.858,-2985,1045,-2886
3.859,-2637,1094,-2836
3.86,-2886,1045,-2936
3.861,-2637,945,-2886
3.862,-2538,1094,-2886
3.863,-2637,1244,-2786
3.864,-2737,895,-2985
3.865,-2637,1045,-2886
3.866,-2737,1045,-3035
3.867,-2886,1293,-2637
3.868,-2985,1343,-2587
3.869,-2338,995,-2786
3.87,-2587,1045,-2985
3.871,-2786,1194,-3085
3.872,-2936,1244,-2786
3.873,-2836,995,-3035
3.874,-2637,1094,-2936
3.875,-2786,1094,-2985
3.876,-2637,1443,-2985
3.8770000000000002,-2836,1144,-2786
3.878,-2438,895,-3035
3.879,-2836,1144,-2836
3.88,-2637,945,-2936
3.8810000000000002,-2836,1194,-3135
3.882,-2786,1194,-2836
3.883,-2687,995,-3035
3.884,-2737,1144,-2786
3.8850000000000002,-2587,995,-3184
3.886,-2786,1094,-2587
3.887,-2637,1144,-2836
3.888,-2687,945,-2936
3.8890000000000002,-2637,995,-2737
3.89,-2587,846,-2836
3.891,-2786,1094,-3035
3.892,-2786,1045,-2786
3.8930000000000002,-3085,1045,-2936
3.894,-2587,846,-3234
3.895,-2687,1244,-2786
3.896,-2886,1144,-2985
3.8970000000000002,-2786,1045,-2637
3.898,-2836,1194,-2836
3.899,-2786,1045,-3035
3.9,-2786,1244,-2786
3.9010000000000002,-2587,1293,-2886
3.902,-2836,1244,-3035
3.903,-2886,1194,-2836
3.904,-2687,1094,-2886
3.9050000000000002,-2637,945,-2786
3.906,-2786,1343,-2836
3.907,-2687,1094,-2836
3.908,-2836,1144,-2687
3.9090000000000003,-2637,1194,-2836
3.91,-2936,796,-2886
3.911,-2637,945,-3085
3.912,-3135,1045,-2786
3.9130000000000003,-3085,945,-2737
3.914,-3135,1244,-2737
3.915,-2687,1045,-3035
3.916,-2936,1144,-2687
3.9170000000000003,-2936,995,-2936
3.918,-3085,895,-2786
3.919,-2687,945,-3334
3.92,-2936,1144,-2936
3.9210000000000003,-2786,1194,-2985
3.922,-3085,945,-2936
3.923,-2836,1194,-2836
3.924,-2836,1244,-2886
3.9250000000000003,-2786,895,-3284
3.926,-2687,1094,-2985
3.927,-2836,945,-2786
3.928,-2737,1194,-2936
3.9290000000000003,-2936,846,-2886
3.93,-2637,995,-2886
3.931,-2737,895,-2836
3.932,-2985,846,-2836
3.9330000000000003,-2737,995,-2687
3.934,-2687,995,-2836
3.935,-2737,1293,-2687
3.936,-2737,995,-2786
3.9370000000000003,-2737,995,-2737
3.938,-2587,945,-2786
3.939,-2388,1144,-2687
3.94,-2936,1094,-2936
3.9410000000000003,-2687,945,-2886
3.942,-2538,1144,-2985
3.943,-2687,1094,-2985
3.944,-2786,1045,-2936
3.9450000000000003,-2587,846,-2836
3.946,-2836,1443,-2786
3.947,-3035,1393,-2786
3.948,-2985,1045,-2886
3.9490000000000003,-2687,1094,-2985
3.95,-2687,945,-2786
3.951,-2836,1194,-2786
3.952,-2637,995,-2786
3.9530000000000003,-2886,1343,-2985
3.954,-2737,945,-2836
3.955,-2388,1094,-3035
3.956,-2836,1144,-2737
3.9570000000000003,-2388,746,-2836
3.958,-2587,1045,-2936
3.959,-2538,895,-2786
3.96,-2936,1144,-2637
3.9610000000000003,-3035,1293,-2737
3.962,-2836,1194,-2687
3.963,-2737,1045,-3035
3.964,-2538,1194,-2836
3.9650000000000003,-2886,1293,-3085
3.966,-2836,995,-3085
3.967,-2637,1094,-2886
3.968,-2388,696,-2737
3.969,-2587,1094,-2786
3.97,-2836,945,-2886
3.971,-2836,945,-3085
3.972,-2587,1094,-2936
3.973,-2687,1194,-2985
3.974,-2786,1144,-3035
3.975,-2637,1293,-2985
3.976,-3085,1293,-2886
3.977,-2687,1244,-2637
3.978,-2737,1343,-2836
3.979,-2687,1045,-2687
3.98,-2836,945,-2637
3.981,-2637,1144,-2786
3.982,-2488,1094,-2786
3.983,-2637,1293,-3085
3.984,-2737,846,-2936
3.985,-2687,995,-2936
3.986,-2538,945,-2985
3.987,-3035,1094,-2637
3.988,-2737,945,-3085
3.989,-2985,1194,-2936
3.99,-2637,1144,-2538
3.991,-2936,1045,-2836
3.992,-2587,846,-3035
3.993,-2786,1094,-2786
3.994,-2985,1144,-2886
3.995,-2737,895,-2936
3.996,-2488,1094,-2836
3.997,-2886,1244,-2985
3.998,-2886,1045,-2637
3.999,-2587,1194,-2985
4.0,-3035,1045,-2786
4.001,-2836,895,-2936
4.002,-2737,1343,-2886
4.003,-2886,1343,-2886
4.0040000000000004,-2488,1144,-2836
4.005,-2936,995,-3135
4.006,-2836,1045,-2886
4.007,-2587,1194,-3085
4.008,-2836,846,-3035
4.009,-2985,1293,-2985
4.01,-2936,1045,-3035
4.011,-2786,1094,-2886
4.0120000000000005,-2786,696,-2786
4.013,-2836,1393,-2737
4.014,-2985,1094,-2786
4.015,-3184,945,-2836
4.016,-2737,1144,-3085
4.017,-2886,1244,-2936
4.018,-2886,1293,-2737
4.019,-2687,1393,-2836
4.0200000000000005,-2687,895,-2786
4.021,-2786,1194,-2985
4.022,-3135,995,-2936
4.023,-2936,1045,-3184
4.024,-2786,945,-2936
4.025,-2786,1293,-2936
4.026,-2886,1094,-3085
4.027,-2687,1244,-3085
4.0280000000000005,-2587,895,-2985
4.029,-2836,1045,-3035
4.03,-2786,1144,-2737
4.031,-2836,1144,-2786
4.032,-2687,1045,-2886
4.033,-2886,646,-2985
4.034,-2886,696,-2786
4.035,-2637,1194,-2936
4.0360000000000005,-2786,995,-3035
4.037,-2886,1144,-2786
4.038,-2886,1045,-3035
4.039,-2936,1194,-2985
4.04,-2786,1144,-2886
4.041,-2637,1144,-2836
4.042,-2836,1094,-2737
4.043,-2587,1194,-2587
4.0440000000000005,-2936,1393,-3135
4.045,-2737,1144,-2438
4.046,-2538,696,-2737
4.047,-2587,1045,-2538
4.048,-2985,1144,-3135
4.049,-2936,1045,-2786
4.05,-2886,1144,-2886
4.051,-2538,1244,-2936
4.0520000000000005,-2637,1194,-2936
4.053,-2737,1244,-2737
4.054,-2587,1045,-2836
4.055,-2836,945,-2637
4.056,-2538,1293,-2836
4.057,-2985,1343,-2786
4.058,-2637,796,-2786
4.059,-2637,1293,-2985
4.0600000000000005,-2637,796,-2637
4.061,-2886,1045,-2786
4.062,-2637,1094,-2538
4.063,-2985,895,-2687
4.064,-2637,1144,-2836
4.065,-2737,846,-2836
4.066,-2836,1244,-2886
4.067,-2836,1045,-2985
4.0680000000000005,-2538,895,-2637
4.069,-2637,796,-3035
4.07,-2637,1094,-2836
4.071,-2587,1094,-2936
4.072,-2538,1244,-2886
4.073,-2687,1144,-2985
4.074,-2886,1094,-2637
4.075,-2687,995,-2637
4.0760000000000005,-2637,846,-3035
4.077,-2538,1194,-2786
4.078,-2687,1194,-2985
4.079,-2587,1045,-2886
4.08,-2538,1094,-2886
4.081,-2587,1144,-2936
4.082,-2786,1094,-2786
4.083,-2737,995,-2836
4.0840000000000005,-2786,945,-2786
4.085,-2737,895,-2687
4.086,-2488,995,-2737
4.087,-2886,1194,-2985
4.088,-2786,995,-3135
4.089,-2836,796,-2936
4.09,-2587,846,-2836
4.091,-2737,1244,-2786
4.0920000000000005,-2488,1244,-2687
4.093,-2687,895,-2737
4.094,-2737,746,-3135
4.095,-2538,746,-3035
4.096,-2737,1144,-2737
4.097,-2786,1094,-2886
4.098,-2836,895,-2886
4.099,-2587,1045,-2886
4.1,-2637,995,-2836
4.101,-2538,1293,-2886
4.102,-2886,846,-2687
4.103,-2687,1045,-2737
4.104,-2438,1244,-2836
4.105,-2338,1045,-2886
4.106,-2637,1144,-2438
4.107,-2737,1045,-2936
4.108,-2488,597,-2587
4.109,-2438,1194,-2985
4.11,-2886,995,-2637
4.111,-2687,945,-2737
4.112,-3035,746,-2687
4.113,-2488,1144,-2936
4.114,-2289,846,-2786
4.115,-2737,995,-2687
4.116,-2737,995,-3035
4.117,-2637,945,-2836
4.118,-2338,1045,-2936
4.119,-2637,1144,-2936
4.12,-2687,1343,-2886
4.121,-2637,895,-2637
4.122,-2836,1194,-2836
4.123,-2587,995,-2836
4.124,-2737,995,-3085
4.125,-2737,846,-2985
4.126,-2737,1194,-2836
4.127,-2786,796,-2737
4.128,-2737,1194,-2836
4.1290000000000004,-2786,746,-2687
4.13,-2587,995,-2687
4.131,-2488,1144,-2836
4.132,-2836,796,-2687
4.133,-2786,846,-2936
4.134,-2338,895,-2886
4.135,-2587,846,-2737
4.136,-3184,1244,-3035
4.1370000000000005,-2886,995,-2587
4.138,-2737,1094,-2836
4.139,-2438,1194,-2687
4.14,-2338,995,-2786
4.141,-2637,945,-2737
4.142,-2836,1094,-2836
4.143,-2488,895,-2985
4.144,-2488,1144,-2488
4.1450000000000005,-2637,995,-2737
4.146,-2488,1045,-2836
4.147,-2587,1144,-2985
4.148,-2538,895,-3085
4.149,-2488,1343,-2786
4.15,-2737,1194,-2985
4.151,-2737,846,-3085
4.152,-2836,1144,-2737
4.1530000000000005,-2488,1144,-2786
4.154,-2886,945,-2737
4.155,-2388,995,-2637
4.156,-2936,846,-2985
4.157,-2488,1144,-3184
4.158,-2886,1045,-2687
4.159,-2836,796,-2687
4.16,-2587,895,-2836
4.1610000000000005,-2687,995,-2886
4.162,-2786,995,-2737
4.163,-2836,995,-2936
4.164,-2637,1094,-2985
4.165,-2786,895,-2637
4.166,-3085,1094,-2886
4.167,-2687,1144,-2985
4.168,-2538,1045,-3035
4.1690000000000005,-2786,1343,-2836
4.17,-2587,945,-2886
4.171,-2637,945,-2786
4.172,-2836,1244,-3035
4.173,-2836,1045,-2737
4.174,-2936,1094,-2886
4.175,-2637,1045,-2637
4.176,-2488,895,-3085
4.1770000000000005,-2587,796,-2687
4.178,-2936,1244,-2786
4.179,-2687,1194,-2936
4.18,-2836,1094,-2687
4.181,-2637,1045,-2886
4.182,-2338,846,-2985
4.183,-2737,945,-2936
4.184,-2737,895,-2538
4.1850000000000005,-2687,1094,-3135
4.186,-2587,1194,-2836
4.187,-2587,995,-2786
4.188,-2587,1144,-2687
4.189,-2687,895,-2488
4.19,-2488,1144,-3135
4.191,-2637,1094,-2737
4.192,-2587,995,-2637
4.1930000000000005,-2388,945,-2637
4.194,-2687,796,-2587
4.195,-2737,1194,-2786
4.196,-2488,1094,-2388
4.197,-2637,1045,-2985
4.198,-2786,1094,-2836
4.199,-2587,995,-2886
4.2,-2737,1144,-2687
4.2010000000000005,-2538,1045,-2687
4.202,-2587,646,-2687
4.203,-2538,846,-2637
4.204,-2836,995,-2786
4.205,-2737,1094,-2737
4.206,-2836,1144,-2687
4.207,-2538,646,-2836
4.208,-2687,945,-2637
4.2090000000000005,-2438,995,-2637
4.21,-2936,696,-2737
4.211,-2737,1144,-2886
4.212,-2488,1194,-2786
4.213,-2786,945,-2687
4.214,-2438,796,-2687
4.215,-2388,796,-2836
4.216,-2388,895,-2488
4.2170000000000005,-2886,846,-2886
4.218,-2687,1045,-2786
4.219,-2587,1094,-2737
4.22,-2538,846,-2737
4.221,-2538,1094,-2836
4.222,-2587,1045,-2488
4.223,-2538,1144,-2587
4.224,-2637,846,-2786
4.225,-2936,1045,-2488
4.226,-2687,995,-2737
4.227,-2687,1045,-2786
4.228,-2737,1045,-2886
4.229,-2538,895,-2687
4.23,-2737,945,-2737
4.231,-2687,1045,-2786
4.232,-2737,1144,-2836
4.233,-2687,1045,-2737
4.234,-2687,895,-2737
4.235,-2936,995,-2886
4.236,-2687,796,-2836
4.237,-2786,1094,-3085
4.238,-2836,995,-2637
4.239,-2637,945,-3035
4.24,-2687,1244,-3035
4.241,-2388,1045,-2786
4.242,-2687,846,-2886
4.243,-2687,1144,-2786
4.244,-2886,1244,-2786
4.245,-2587,895,-2687
4.246,-2786,945,-2786
4.247,-2786,1144,-2438
4.248,-2538,1194,-2886
4.249,-2836,995,-2637
4.25,-2587,1293,-2985
4.251,-2836,746,-2836
4.252,-2587,1144,-2438
4.253,-2886,1094,-2786
4.2540000000000004,-2637,1144,-2687
4.255,-2737,1045,-2985
4.256,-2786,945,-2886
4.257,-2438,1094,-2737
4.258,-2637,945,-2886
4.259,-2637,846,-2737
4.26,-2538,1492,-2836
4.261,-2488,1045,-2737
4.2620000000000005,-2538,1144,-2637
4.263,-2239,1045,-2637
4.264,-2488,895,-2786
4.265,-2936,945,-2637
4.266,-2587,1194,-2587
4.267,-2687,846,-2836
4.268,-2388,1094,-2886
4.269,-2637,1244,-2587
4.2700000000000005,-2737,895,-2637
4.271,-2836,945,-2737
4.272,-2637,995,-2637
4.273,-2687,796,-2488
4.274,-2488,796,-2637
4.275,-2836,945,-2637
4.276,-2538,1094,-2786
4.277,-2538,945,-2687
4.2780000000000005,-2637,1045,-2637
4.279,-2289,945,-2985
4.28,-2737,945,-2936
4.281,-2587,895,-2786
4.282,-2687,945,-2886
4.283,-2786,1094,-2886
4.284,-2388,945,-2637
4.285,-2737,796,-2687
4.2860000000000005,-2438,846,-2338
4.287,-2836,1194,-2886
4.288,-2786,1144,-2637
4.289,-2538,895,-2538
4.29,-2388,796,-2538
4.291,-2637,995,-2737
4.292,-2488,895,-2886
4.293,-2786,945,-2438
4.2940000000000005,-2289,696,-2687
4.295,-2737,945,-2488
4.296,-2687,945,-2488
4.297,-2637,995,-2737
4.298,-2637,646,-2587
4.299,-2587,1094,-2637
4.3,-2587,945,-2587
4.301,-2488,846,-2637
4.3020000000000005,-2488,746,-2587
4.303,-2538,696,-2637
4.304,-2687,846,-2737
4.305,-2438,1144,-2886
4.306,-2438,995,-2488
4.307,-2587,846,-2488
4.308,-2438,1045,-2587
4.309,-2637,1094,-2737
4.3100000000000005,-2637,846,-2538
4.311,-2637,846,-2786
4.312,-2687,895,-2538
4.313,-2488,945,-2637
4.314,-2637,646,-2587
4.315,-2438,1045,-2786
4.316,-2388,796,-2687
4.317,-2637,846,-2338
4.3180000000000005,-2338,945,-2737
4.319,-2587,1293,-2637
4.32,-2587,945,-2538
4.321,-2538,1144,-2587
4.322,-2637,895,-2438
4.323,-2737,1045,-2886
4.324,-2538,846,-2737
4.325,-2438,796,-2836
4.3260000000000005,-2836,1045,-2687
4.327,-2587,895,-2438
4.328,-2836,696,-2836
4.329,-2737,1244,-2737
4.33,-2438,1144,-2637
4.331,-2737,945,-2786
4.332,-2488,895,-2836
4.333,-2836,646,-2936
4.3340000000000005,-2936,945,-2786
4.335,-2737,746,-2637
4.336,-2836,945,-2985
4.337,-2886,1094,-2687
4.338,-2737,1094,-2687
4.339,-2637,945,-2388
4.34,-2538,895,-2587
4.341,-2239,945,-2737
4.3420000000000005,-2687,1144,-2786
4.343,-2538,995,-2637
4.344,-2587,1045,-2836
4.345,-2338,995,-2886
4.346,-2786,1343,-2836
4.347,-2687,945,-2737
4.348,-2936,1194,-2587
4.349,-2637,796,-2786
4.3500000000000005,-2388,995,-2985
4.351,-2737,746,-2737
4.352,-2438,945,-2786
4.353,-2538,1094,-2936
4.354,-2587,945,-2687
4.355,-2338,846,-2836
4.356,-2587,1144,-2687
4.357,-2587,995,-2737
4.358,-2587,995,-2637
4.359,-2488,746,-2836
4.36,-2737,1045,-3085
4.361,-2488,1045,-2587
4.362,-2388,1144,-2737
4.363,-2587,945,-2737
4.364,-2488,945,-2886
4.365,-2289,796,-2737
4.366,-2637,945,-2786
4.367,-2737,995,-2637
4.368,-2587,1144,-2687
4.369,-2637,895,-2687
4.37,-2886,796,-2538
4.371,-2587,1094,-2786
4.372,-2836,1244,-2786
4.373,-2886,945,-2737
4.374,-2786,846,-2786
4.375,-2488,945,-2886
4.376,-2338,1094,-2836
4.377,-2289,846,-2737
4.378,-2538,696,-2587
4.3790000000000004,-2587,597,-2687
4.38,-2786,1045,-2786
4.381,-2438,1144,-2538
4.382,-2488,796,-2438
4.383,-2388,895,-2637
4.384,-2438,945,-2836
4.385,-2587,846,-2388
4.386,-2438,995,-2737
4.3870000000000005,-2637,846,-2587
4.388,-2289,1094,-2687
4.389,-2189,1244,-2985
4.39,-2587,796,-2637
4.391,-2538,1144,-2637
4.392,-2388,1194,-2488
4.393,-2338,846,-2637
4.394,-2388,746,-2687
4.3950000000000005,-2139,846,-2488
4.396,-2637,995,-2687
4.397,-2587,1094,-2786
4.398,-2438,796,-2687
4.399,-2687,746,-2737
4.4,-2488,1045,-2936
4.401,-2637,945,-2637
4.402,-2737,995,-2438
4.4030000000000005,-2438,746,-2538
4.404,-2737,945,-2338
4.405,-2687,1045,-2538
4.406,-2488,895,-2587
4.407,-2488,746,-2587
4.408,-2637,895,-2538
4.409,-2737,995,-2388
4.41,-2338,895,-2687
4.4110000000000005,-2338,746,-2538
4.412,-2538,646,-2737
4.413,-2488,746,-2786
4.414,-2488,796,-2786
4.415,-2338,646,-2587
4.416,-2637,796,-2786
4.417,-2587,1094,-2886
4.418,-2587,1094,-2786
4.4190000000000005,-2538,1343,-2836
4.42,-2488,995,-2538
4.421,-2488,597,-2836
4.422,-3035,945,-2587
4.423,-2786,995,-2587
4.424,-2587,1144,-2687
4.425,-2438,895,-2836
4.426,-2687,1045,-2587
4.4270000000000005,-2538,1094,-2886
4.428,-2637,846,-2488
4.429,-2936,1045,-2737
4.43,-2538,796,-2985
4.431,-2538,1045,-2836
4.432,-2338,846,-2687
4.433,-2737,1144,-2438
4.434,-2587,995,-2587
4.4350000000000005,-2289,1144,-2438
4.436,-2538,1393,-2985
4.437,-2836,895,-2786
4.438,-2538,796,-2587
4.439,-2239,1144,-2836
4.44,-2687,995,-2737
4.441,-2388,995,-2488
4.442,-2139,846,-2786
4.4430000000000005,-2538,1094,-2737
4.444,-2637,995,-2587
4.445,-2687,1293,-2836
4.446,-2538,1443,-2687
4.447,-2488,895,-2637
4.448,-2637,945,-2587
4.449,-2488,945,-2687
4.45,-2836,646,-2587
4.4510000000000005,-2388,945,-2886
4.452,-2438,945,-2886
4.453,-2538,1045,-2637
4.454,-2289,846,-2587
4.455,-2637,846,-2637
4.456,-2189,895,-2687
4.457,-2538,646,-2388
4.458,-2488,895,-2687
4.4590000000000005,-2388,895,-2538
4.46,-2438,1094,-2637
4.461,-2488,945,-2737
4.462,-2687,846,-2538
4.463,-2289,1094,-2538
4.464,-2488,1045,-2488
4.465,-2438,746,-2538
4.466,-2737,796,-2388
4.4670000000000005,-2637,995,-2786
4.468,-2637,1045,-2637
4.469,-2338,995,-2538
4.47,-2687,945,-2388
4.471,-2488,1045,-2836
4.472,-2239,995,-2786
4.473,-2488,945,-2737
4.474,-2587,995,-2786
4.4750000000000005,-2388,995,-2737
4.476,-2438,796,-2587
4.477,-2388,945,-2786
4.478,-2338,1094,-2488
4.479,-2388,746,-2637
4.48,-2687,945,-2737
4.481,-2338,995,-2637
4.482,-2488,796,-2737
4.483,-2289,895,-2687
4.484,-2786,945,-2637
4.485,-2538,895,-2786
4.486,-2338,746,-2637
4.487,-2637,646,-2438
4.488,-2637,1045,-2786
4.489,-2388,945,-2637
4.49,-2289,895,-2488
4.491,-2538,1045,-2637
4.492,-2289,995,-2687
4.493,-2239,995,-2637
4.494,-2488,945,-2538
4.495,-2786,846,-2737
4.496,-2438,796,-2637
4.497,-2239,746,-2538
4.498,-2587,945,-2538
4.499,-2587,796,-2737
4.5,-2488,995,-2687
4.501,-2338,1045,-2587
4.502,-2587,846,-2985
4.503,-2289,995,-2438
4.5040000000000004,-2488,1194,-2737
4.505,-2388,547,-2936
4.506,-2488,945,-2637
4.507,-2637,796,-2438
4.508,-2538,846,-2587
4.509,-2936,995,-2538
4.51,-2289,995,-2687
4.511,-2637,1094,-2637
4.5120000000000005,-2438,995,-2239
4.513,-2587,1194,-2637
4.514,-2438,895,-2239
4.515,-2438,995,-2438
4.516,-2388,895,-2438
4.517,-2388,597,-2587
4.518,-2388,895,-2587
4.519,-2637,597,-2438
4.5200000000000005,-2338,846,-2488
4.521,-2388,597,-2338
4.522,-2388,895,-2388
4.523,-2388,597,-2438
4.524,-2289,846,-2438
4.525,-2637,1045,-2587
4.526,-2090,995,-2438
4.527,-2488,895,-2488
4.5280000000000005,-2587,995,-2338
4.529,-2438,895,-2637
4.53,-2637,696,-2538
4.531,-2438,895,-2538
4.532,-2737,1094,-2587
4.533,-2687,746,-2637
4.534,-2438,1094,-2637
4.535,-2587,646,-2886
4.5360000000000005,-2488,945,-2587
4.537,-2388,746,-2687
4.538,-2538,895,-2289
4.539,-2189,895,-2488
4.54,-2488,945,-2737
4.541,-2687,1045,-2587
4.542,-2388,945,-2836
4.543,-2189,646,-2239
4.5440000000000005,-2488,696,-2737
4.545,-2239,846,-2488
4.546,-2637,846,-2687
4.547,-2488,945,-2587
4.548,-2637,895,-2388
4.549,-2239,1045,-2538
4.55,-2388,995,-2488
4.551,-2388,746,-2438
4.5520000000000005,-2587,945,-2538
4.553,-2289,497,-2438
4.554,-2488,995,-2637
4.555,-2438,646,-2637
4.556,-2438,696,-2438
4.557,-2488,1045,-2488
4.558,-2488,846,-2438
4.559,-2289,895,-2587
4.5600000000000005,-2737,1045,-2538
4.561,-2836,646,-2488
4.562,-2338,746,-2737
4.563,-2488,995,-2488
4.564,-2438,1144,-2687
4.565,-2289,646,-2338
4.566,-2338,796,-2488
4.567,-2438,1094,-2637
4.5680000000000005,-2637,995,-2289
4.569,-2239,995,-2438
4.57,-2687,995,-2587
4.571,-2587,995,-2637
4.572,-2538,796,-2737
4.573,-2338,746,-2687
4.574,-2438,846,-2886
4.575,-2538,796,-2587
4.5760000000000005,-2587,796,-2338
4.577,-2587,1045,-2737
4.578,-2239,1094,-2637
4.579,-2488,995,-2438
4.58,-2637,1094,-2438
4.581,-2139,846,-2587
4.582,-2338,846,-2687
4.583,-2538,895,-2488
4.5840000000000005,-2538,796,-2388
4.585,-2488,746,-2538
4.586,-2637,995,-2239
4.587,-2488,796,-2388
4.588,-2388,945,-2737
4.589,-2538,945,-2388
4.59,-2488,995,-2737
4.591,-2388,846,-2289
4.5920000000000005,-2538,1094,-2587
4.593,-2836,846,-2587
4.594,-2488,796,-2737
4.595,-2289,746,-2587
4.596,-2189,646,-2438
4.597,-2438,895,-2587
4.598,-2737,1045,-2338
4.599,-2438,895,-2637
4.6000000000000005,-2737,1045,-2985
4.601,-2338,796,-2488
4.602,-2338,746,-2538
4.603,-2637,547,-2538
4.604,-2538,995,-2637
4.605,-2538,945,-2886
4.606,-2538,796,-2488
4.607,-2388,846,-2637
4.6080000000000005,-2139,945,-2388
4.609,-2538,646,-2587
4.61,-2587,796,-2836
4.611,-2737,945,-2538
4.612,-2388,945,-2538
4.613,-2538,895,-2687
4.614,-2538,796,-2538
4.615,-2637,796,-2388
4.616,-2289,945,-2637
4.617,-2488,746,-2587
4.618,-2388,846,-2239
4.619,-2438,796,-2587
4.62,-2438,1045,-2737
4.621,-2587,895,-2488
4.622,-2239,945,-2338
4.623,-2538,945,-2189
4.624,-2388,1045,-2538
4.625,-2338,796,-2886
4.626,-2438,995,-2687
4.627,-2289,1045,-2438
4.628,-2438,895,-2687
4.6290000000000004,-2488,746,-2538
4.63,-2289,796,-2438
4.631,-2488,995,-2239
4.632,-2388,646,-2836
4.633,-2538,746,-2488
4.634,-2438,1045,-2637
4.635,-2438,995,-2438
4.636,-2139,846,-2587
4.6370000000000005,-2338,995,-2189
4.638,-2587,995,-2438
4.639,-2338,1045,-2388
4.64,-2587,1144,-2587
4.641,-2388,1094,-2538
4.642,-2239,846,-2438
4.643,-2388,1045,-2488
4.644,-2438,945,-2587
4.6450000000000005,-2239,796,-2438
4.646,-2388,796,-2338
4.647,-2239,895,-2338
4.648,-2637,746,-2338
4.649,-2687,796,-2637
4.65,-2737,945,-2687
4.651,-2538,995,-2438
4.652,-2438,846,-2239
4.6530000000000005,-2239,1094,-2289
4.654,-2538,895,-2438
4.655,-2687,746,-2438
4.656,-2488,945,-2637
4.657,-2587,646,-2388
4.658,-2637,696,-2438
4.659,-2737,796,-2488
4.66,-2388,746,-2587
4.6610000000000005,-2488,696,-2488
4.662,-2189,1045,-2388
4.663,-2289,547,-2438
4.664,-2687,547,-2289
4.665,-2338,646,-2737
4.666,-2338,995,-2388
4.667,-2637,696,-2538
4.668,-2289,796,-2388
4.6690000000000005,-2687,895,-2338
4.67,-2388,895,-2687
4.671,-2538,895,-2438
4.672,-2438,1094,-2538
4.673,-2438,796,-2587
4.674,-2388,796,-2488
4.675,-2388,1144,-2488
4.676,-2637,746,-2786
4.6770000000000005,-2488,895,-2587
4.678,-2538,895,-2338
4.679,-2338,846,-2438
4.68,-2438,547,-2388
4.681,-2488,746,-2637
4.682,-2338,796,-2786
4.683,-2388,1094,-2388
4.684,-2438,846,-2189
4.6850000000000005,-2388,846,-2338
4.686,-2538,646,-2388
4.687,-2438,746,-2637
4.688,-2289,995,-2338
4.689,-2239,696,-2637
4.69,-2289,597,-2786
4.691,-2338,1094,-2488
4.692,-2687,796,-2587
4.6930000000000005,-2587,995,-2737
4.694,-2139,945,-2687
4.695,-2438,895,-2438
4.696,-2438,945,-2687
4.697,-2239,846,-2488
4.698,-2488,945,-2538
4.699,-2538,895,-2338
4.7,-2338,447,-2637
4.7010000000000005,-2388,995,-2687
4.702,-2637,746,-2587
4.703,-2438,1094,-2338
4.704,-2338,696,-2637
4.705,-2488,696,-2338
4.706,-2438,945,-2737
4.707,-2289,796,-2388
4.708,-2488,846,-2637
4.7090000000000005,-2239,696,-2587
4.71,-2338,995,-2587
4.711,-2388,895,-2737
4.712,-2338,945,-2388
4.713,-2438,746,-2338
4.714,-2538,1094,-2338
4.715,-2338,796,-2289
4.716,-2438,846,-2488
4.7170000000000005,-2289,646,-2338
4.718,-2239,895,-2289
4.719,-2388,796,-2637
4.72,-1990,995,-2587
4.721,-2289,895,-2687
4.722,-2488,1244,-2438
4.723,-2538,1045,-2438
4.724,-2438,895,-2786
4.7250000000000005,-2388,796,-2538
4.726,-2488,945,-2488
4.727,-2239,796,-2388
4.728,-2587,846,-2488
4.729,-2139,696,-2189
4.73,-2587,895,-2189
4.731,-2090,846,-2438
4.732,-2538,945,-2388
4.7330000000000005,-2239,846,-2737
4.734,-2239,746,-2637
4.735,-2289,547,-2388
4.736,-2289,895,-2538
4.737,-2189,846,-2587
4.738,-2239,846,-2438
4.739,-2189,846,-2289
4.74,-2538,746,-2737
4.741,-2189,547,-2289
4.742,-2488,796,-2538
4.743,-2488,846,-2338
4.744,-2289,696,-2538
4.745,-2637,1094,-2338
4.746,-2538,945,-2239
4.747,-2538,597,-2438
4.748,-2239,945,-2239
4.749,-2040,895,-2488
4.75,-2189,995,-2289
4.751,-2388,746,-2289
4.752,-2538,846,-2737
4.753,-2488,796,-2538
4.7540000000000004,-2438,796,-2538
4.755,-2538,846,-2438
4.756,-2488,945,-2289
4.757,-2289,646,-2587
4.758,-2388,945,-2587
4.759,-2438,945,-2338
4.76,-2438,895,-2538
4.761,-2438,796,-2388
4.7620000000000005,-2488,1144,-2587
4.763,-1990,995,-2189
4.764,-2438,796,-2388
4.765,-2090,696,-2438
4.766,-2289,846,-2538
4.767,-2438,1045,-2239
4.768,-2090,895,-2438
4.769,-2338,646,-2338
4.7700000000000005,-2139,895,-2587
4.771,-2488,1094,-2239
4.772,-2239,846,-2388
4.773,-1990,1045,-2388
4.774,-2338,796,-2438
4.775,-2438,746,-2538
4.776,-2538,995,-2289
4.777,-2388,895,-2687
4.7780000000000005,-2438,796,-2289
4.779,-2687,895,-2488
4.78,-2587,1144,-2538
4.781,-2289,746,-2438
4.782,-2587,597,-2438
4.783,-2587,1094,-2338
4.784,-2438,796,-2438
4.785,-2239,1045,-2438
4.7860000000000005,-2687,1045,-2538
4.787,-2538,1045,-2637
4.788,-2488,846,-2438
4.789,-2338,796,-2687
4.79,-2587,597,-2289
4.791,-2189,1094,-2388
4.792,-2189,746,-2239
4.793,-2388,746,-2289
4.7940000000000005,-2488,846,-2587
4.795,-2687,846,-2538
4.796,-2289,995,-2687
4.797,-2388,1144,-2538
4.798,-2438,696,-2438
4.799,-2488,995,-2438
4.8,-2388,796,-2090
4.801,-2438,995,-2388
4.8020000000000005,-2388,846,-2388
4.803,-2289,746,-2289
4.804,-2438,796,-2239
4.805,-2189,1293,-2538
4.806,-2587,796,-2488
4.807,-2338,846,-2538
4.808,-2438,945,-2488
4.809,-2289,597,-2388
4.8100000000000005,-2239,995,-2488
4.811,-2139,995,-2538
4.812,-2289,746,-2239
4.813,-2090,995,-2388
4.814,-2338,696,-2637
4.815,-2090,895,-2438
4.816,-2538,696,-2488
4.817,-2289,746,-2587
4.8180000000000005,-2438,895,-2587
4.819,-2737,1045,-2587
4.82,-2239,796,-2538
4.821,-2538,1094,-2687
4.822,-2338,945,-2488
4.823,-2338,796,-2587
4.824,-2488,995,-2538
4.825,-2189,945,-2587
4.8260000000000005,-2189,646,-2438
4.827,-2338,447,-2438
4.828,-2538,547,-2189
4.829,-2488,895,-2289
4.83,-2338,796,-2587
4.831,-2139,796,-2637
4.832,-2538,945,-2488
4.833,-2139,696,-2388
4.8340000000000005,-2488,746,-2737
4.835,-2139,746,-2289
4.836,-2538,547,-2338
4.837,-2438,696,-2538
4.838,-2338,995,-2488
4.839,-2040,646,-2239
4.84,-2239,646,-2737
4.841,-2239,796,-2388
4.8420000000000005,-2239,646,-2538
4.843,-2488,895,-2189
4.844,-2289,696,-2239
4.845,-2488,895,-2488
4.846,-2289,796,-2587
4.847,-2388,846,-2388
4.848,-2239,1094,-2587
4.849,-2488,846,-2637
4.8500000000000005,-2637,696,-2538
4.851,-2239,746,-2438
4.852,-2488,1094,-2388
4.853,-2338,895,-2139
4.854,-2438,895,-2189
4.855,-2139,846,-2338
4.856,-2388,945,-2090
4.857,-2090,846,-2338
4.8580000000000005,-2289,746,-2538
4.859,-2438,597,-2289
4.86,-2388,846,-2488
4.861,-2338,846,-2587
4.862,-2338,846,-2338
4.863,-2587,746,-2538
4.864,-2737,995,-2239
4.865,-2189,646,-2488
4.866,-2338,497,-2388
4.867,-2338,646,-2338
4.868,-2289,497,-2438
4.869,-2189,945,-2488
4.87,-2538,796,-2338
4.871,-2388,945,-2388
4.872,-2239,1045,-2388
4.873,-2488,746,-2189
4.874,-2438,846,-2637
4.875,-2289,746,-2488
4.876,-2488,846,-2289
4.877,-2289,746,-2538
4.878,-2388,497,-2538
4.8790000000000004,-2438,846,-2587
4.88,-2289,945,-2189
4.881,-2388,696,-2239
4.882,-2239,995,-2637
4.883,-2289,796,-2139
4.884,-2090,796,-2587
4.885,-2239,995,-2289
4.886,-2239,646,-2189
4.8870000000000005,-2538,846,-2289
4.888,-2388,696,-2338
4.889,-2090,945,-2289
4.89,-2587,895,-2438
4.891,-2189,945,-2289
4.892,-2189,846,-2438
4.893,-2189,846,-2538
4.894,-2189,995,-2438
4.8950000000000005,-2289,945,-2338
4.896,-1990,995,-2338
4.897,-2488,846,-2438
4.898,-2388,945,-2538
4.899,-2189,995,-2239
4.9,-2587,796,-2388
4.901,-2388,895,-2438
4.902,-2488,945,-2438
4.9030000000000005,-2786,796,-2538
4.904,-2438,1045,-2239
4.905,-1990,895,-2687
4.906,-2438,597,-2388
4.907,-2338,597,-2239
4.908,-2289,995,-2338
4.909,-2538,995,-2488
4.91,-2090,696,-2338
4.9110000000000005,-2289,646,-2687
4.912,-2090,895,-2388
4.913,-2289,597,-2388
4.914,-2338,846,-2587
4.915,-2388,895,-2388
4.916,-2239,696,-2538
4.917,-2488,846,-2388
4.918,-2338,846,-2538
4.9190000000000005,-2189,597,-2289
4.92,-2239,447,-2289
4.921,-2090,945,-2189
4.922,-2488,597,-2488
4.923,-2438,746,-2189
4.924,-2538,696,-2538
4.925,-2040,1094,-2338
4.926,-2338,846,-2338
4.9270000000000005,-2338,646,-2488
4.928,-2289,746,-2438
4.929,-2189,696,-2538
4.93,-2289,646,-2538
4.931,-2637,895,-2139
4.932,-2338,646,-2189
4.933,-2189,796,-2538
4.934,-2289,696,-2438
4.9350000000000005,-2189,447,-2388
4.936,-2438,746,-2338
4.937,-2189,895,-2189
4.938,-2040,796,-2289
4.939,-1990,547,-2239
4.94,-2090,646,-2438
4.941,-2289,696,-1841
4.942,-2538,696,-2538
4.9430000000000005,-2289,895,-2239
4.944,-2587,597,-2388
4.945,-1940,547,-2139
4.946,-2139,696,-2538
4.947,-2239,646,-2388
4.948,-2338,746,-2388
4.949,-2090,547,-2438
4.95,-2189,696,-2637
4.9510000000000005,-2040,746,-2040
4.952,-2289,796,-2189
4.953,-2139,597,-2090
4.954,-2090,597,-2289
4.955,-2338,746,-2239
4.956,-2388,547,-2637
4.957,-2488,646,-2189
4.958,-2139,597,-2239
4.9590000000000005,-2388,796,-2289
4.96,-2338,746,-2139
4.961,-2488,945,-2139
4.962,-2388,597,-2438
4.963,-1791,746,-2289
4.964,-2239,497,-2438
4.965,-2438,995,-2139
4.966,-2388,646,-2289
4.9670000000000005,-2289,597,-2139
4.968,-2289,597,-2239
4.969,-2289,796,-2239
4.97,-2139,796,-2388
4.971,-2090,746,-2289
4.972,-2388,895,-2438
4.973,-2338,945,-2239
4.974,-2139,945,-2388
4.9750000000000005,-2289,1094,-2289
4.976,-2189,746,-2488
4.977,-2289,746,-2388
4.978,-2239,1045,-2090
4.979,-2239,398,-2040
4.98,-1990,696,-2139
4.981,-2388,597,-2189
4.982,-2488,696,-2289
4.9830000000000005,-2239,646,-2438
4.984,-2090,895,-2488
4.985,-2388,796,-2338
4.986,-2289,746,-2139
4.987,-2388,895,-2338
4.988,-2289,497,-1990
4.989,-1940,945,-2040
4.99,-2239,895,-2388
4.9910000000000005,-2239,696,-2289
4.992,-2289,696,-2289
4.993,-2189,796,-2388
4.994,-2239,796,-2189
4.995,-2338,447,-2488
4.996,-2587,1144,-2388
4.997,-2388,447,-2388
4.998,-2388,796,-2139
4.999,-2338,995,-2189
5.0,-2438,895,-2040
5.001,-2538,995,-2090
5.002,-2289,746,-2289
5.003,-2388,995,-2239
5.0040000000000004,-2289,696,-2289
5.005,-2189,646,-2189
5.006,-1940,1045,-2438
5.007,-2338,746,-2488
5.008,-2090,746,-2388
5.009,-2289,746,-2587
5.01,-2189,597,-2139
5.011,-2239,796,-2289
5.0120000000000005,-2388,597,-2338
5.013,-2289,995,-2040
5.014,-2090,696,-2587
5.015,-1940,497,-2189
5.016,-2289,597,-2239
5.017,-2388,746,-2239
5.018,-2488,945,-1990
5.019,-1990,696,-2289
