18:09:54.756: Date,Time,ChangeFlag,ACC X,ACC Y,ACC Z,IMU X_RATE,IMU Y_RATE,IMU Z_RATE,          IMU X_OFFSET,IMU Y_OFFSET,IMU Z_OFFSET,IMU ACC_X,IMU ACC_Y,IMU ACC_Z,MS5611 Temperature,MS5611 Pressure,GNSS Lat,GNSS Long,GNSS Alt,GNSS velocity,BME280 Pressure,BME280 Temperature,BME280 Humidity,
18:09:54.868: 0,0:0:0:3445,1,-19,-826,182,3010,-3360,1540,536871400,536870988,134249674,982,-22,276,1861,99803,0,0,65344,8194,-1392510048,-1,0,
18:09:55.083: 0,0:0:0:3445,1,-68,-826,85,3850,-6440,1120,-1063240706,0,1,971,7,192,1859,99817,0,0,65344,8194,-1392510048,-1,0,
18:09:55.192: 8,0:0:0:3445,1,29,-972,36,3850,-4690,5110,-1063237297,0,1,984,-17,228,1859,99829,0,0,65344,8194,-1392510048,-1,0,
18:09:55.301: 0,0:0:0:3445,1,-68,-875,134,2100,-2450,2870,-1063233645,0,1,996,-17,217,1859,99817,0,0,65344,8194,-1392510048,-1,0,
18:09:55.412: 8,0:0:0:3445,1,-19,-875,85,1680,-5530,700,-1063236736,0,1,980,-7,229,1858,99813,0,0,65344,8194,-1392510048,-1,0,
18:09:55.626: 0,0:0:0:3445,1,29,-826,182,1680,-4200,17290,-1063238686,0,1,976,-7,233,1859,99829,0,0,65344,8194,-1392510048,-1,0,
18:09:55.737: 8,0:0:0:3445,1,-68,-875,36,-490,-2870,700,-1063233645,0,1,981,-12,214,1858,99813,0,0,65344,8194,-1392510048,-1,0,
18:09:55.846: 0,0:0:0:3445,1,-117,-777,36,1260,-5110,210,-1063238405,0,1,992,-2,206,1858,99824,0,0,65344,8194,-1392510048,-1,0,
18:09:56.060: 0,0:0:0:3445,1,-68,-875,182,840,-3780,2870,-1063235597,0,1,994,-16,233,1858,99813,0,0,65344,8194,-1392510048,-1,0,
18:09:56.169: 8,0:0:0:3445,1,-1092,-924,134,3850,-5950,-210,-1063238686,0,1,985,-25,226,1858,99813,0,0,65344,8194,-1392510048,-1,0,
18:09:56.276: 0,0:0:0:3445,1,-68,-875,134,5600,-6440,-630,-1063238686,0,1,983,-2,233,1859,99817,0,0,65344,8194,-1392510048,-1,0,
18:09:56.492: 0,0:0:0:3445,1,29,-924,134,2590,-8610,210,-1063237017,0,1,979,-15,226,1859,99806,0,0,65344,8194,-1392510048,-1,0,
18:09:56.601: 32,0:0:0:3445,1,-68,-972,182,-12320,-3780,5110,-1063240107,0,1,990,-11,239,1858,99824,0,0,65344,8194,-1392510048,-1,0,
18:09:56.710: 8,0:0:0:3445,1,-117,-875,134,3850,-4690,210,-1063235878,0,1,993,-11,310,1858,99813,0,0,65344,8194,-1392510048,-1,0,
18:09:56.925: 0,0:0:0:3445,1,-19,-875,85,-490,-4200,1120,-1063238686,0,1,1004,-26,141,1859,99817,0,0,65344,8194,-1392510048,-1,0,
18:09:57.033: 32,0:0:0:3445,1,-19,-875,134,4340,-5530,700,-1063237017,0,1,979,1,250,1858,99813,0,0,65344,8194,-1392510048,-1,0,
18:09:57.142: 32,0:0:0:3445,1,-19,-924,182,-1820,-6860,210,-1063238686,0,1,984,-30,238,1858,99801,0,0,65344,8194,-1392510048,-1,0,
18:09:57.249: 0,0:0:0:3445,1,-68,-924,85,2100,-2870,1120,-1063242055,0,1,993,-31,192,1858,99801,0,0,65344,8194,-1392510048,-1,0,
18:09:57.463: 32,0:0:0:3445,1,-166,-875,134,350,-4200,-630,-1063242336,0,1,989,34,249,1859,99817,0,0,65344,8194,-1392510048,-1,0,
18:09:57.573: 8,0:0:0:3445,1,-117,-875,182,1680,-9100,3780,-1063237297,0,1,994,-51,89,1858,99813,0,0,65344,8194,-1392510048,-1,0,
18:09:57.683: 32,0:0:0:3445,1,-19,-875,36,4340,630,4200,-2136980510,0,1,981,-22,303,1858,99813,0,0,65344,8194,-1392510048,-1,0,
18:09:57.900: 8,0:0:0:3445,1,-68,-924,85,-1400,-5530,700,-1063238686,0,1,988,33,170,1858,99813,0,0,65344,8194,-1392510048,-1,0,
18:09:58.011: 32,0:0:0:3445,1,-68,-875,182,350,15050,1120,-1063238686,0,1,984,-39,202,1857,99809,0,0,65344,8194,-1392510048,-1,0,
18:09:58.120: 0,0:0:0:3445,1,-117,-924,231,6510,-9940,280,-1063240353,0,1,975,-18,255,1857,99832,0,0,65344,8194,-1392510048,-1,0,
18:09:58.333: 8,0:0:0:3445,1,-68,-875,85,6510,-8610,15960,-1063233899,0,1,980,25,178,1857,99832,0,0,65344,8194,-1392510048,-1,0,
18:09:58.443: 8,0:0:0:3445,1,-19,-875,134,5670,-4200,2870,-1063233618,0,1,1000,-83,295,1857,99809,0,0,65344,8194,-1392510048,-1,0,
18:09:58.554: 0,0:0:0:3445,1,-19,-826,36,-2240,-3360,3360,-1063240073,0,1,996,-20,244,1857,99820,0,0,65344,8194,-1392510048,-1,0,
18:09:58.663: 0,0:0:0:3445,1,-117,-875,134,2590,-210,1540,-1063237266,0,1,995,0,245,1857,99809,0,0,65344,8194,-1392510048,-1,0,
18:09:58.880: 0,0:0:0:3445,1,-68,-924,134,4760,-1540,700,-1063240353,0,1,978,1,223,1857,99820,0,0,65344,8194,-1392510048,-1,0,
18:09:58.989: 0,0:0:0:3445,1,-68,-826,85,4340,-5530,-630,-1063237266,0,1,976,8,223,1857,99820,0,0,65344,8194,-1392510048,-1,0,
18:09:59.099: 0,0:0:0:3445,1,-19,-875,85,350,-700,700,-1063237266,0,1,975,-30,245,1857,99809,0,0,65344,8194,-1392510048,-1,0,
18:09:59.316: 8,0:0:0:3445,1,29,-972,-12,5670,-2870,2450,-1063240353,0,1,984,-5,234,1858,99824,0,0,65344,8194,-1392510048,-1,0,
18:09:59.424: 8,0:0:0:3445,1,-68,-875,134,-490,-2450,700,-1063235597,0,1,995,-28,256,1858,99824,0,0,65344,8194,-1392510048,-1,0,
18:09:59.533: 8,0:0:0:3445,1,-117,-875,85,3430,1540,-1120,-1063235597,0,1,1004,-2,173,1858,99813,0,0,65344,8194,-1392510048,-1,0,
18:09:59.642: 0,0:0:0:3445,1,-68,-924,85,5180,-8610,-630,-1063238686,0,1,992,5,264,1858,99824,0,0,65344,8194,-1392510048,-1,0,
18:09:59.857: 8,0:0:0:3445,1,-19,-826,182,17850,-6860,-210,-1063235597,0,1,980,-15,80,1858,99813,0,0,65344,8194,-1392510048,-1,0,
18:09:59.968: 0,0:0:0:3445,1,-68,-972,85,-490,-3360,-630,-1063238686,0,1,986,-33,314,1858,99824,0,0,65344,8194,-1392510048,-1,0,
18:10:00.075: 32,0:0:0:3445,1,-19,-972,134,3010,-9520,1610,-1063235597,0,1,977,-21,184,1858,99813,0,0,65344,8194,-1392510048,-1,0,
18:10:00.287: 32,0:0:0:3445,1,-68,-924,85,3850,-4690,210,-1063238686,0,1,970,-37,266,1857,99809,0,0,65344,8194,-1392510048,-1,0,
18:10:00.398: 32,0:0:0:3445,1,-68,-875,134,4760,-7280,15960,-1063240353,0,1,974,-11,212,1857,99809,0,0,65344,8194,-1392510048,-1,0,
18:10:00.507: 32,0:0:0:3445,1,-19,-875,36,2590,-3360,-630,-1063240353,0,1,979,-4,200,1857,99820,0,0,65344,8194,-1392510048,-1,0,
18:10:00.720: 8,0:0:0:3445,1,-68,-924,85,2100,-6860,-630,-1063237266,0,1,976,-42,288,1857,99820,0,0,65344,8194,-1392510048,-1,0,
18:10:00.830: 8,0:0:0:3445,1,29,-924,182,1680,-4200,700,-1063237266,0,1,982,-50,254,1857,99820,0,0,65344,8194,-1392510048,-1,0,
18:10:00.941: 32,0:0:0:3445,1,-19,-875,134,4340,-5110,2450,-1063237266,0,1,977,-21,284,1857,99832,0,0,65344,8194,-1392510048,-1,0,
18:10:01.156: 0,0:0:0:3445,1,-19,-826,85,840,-3780,210,-1063233899,0,1,975,-13,243,1857,99820,0,0,65344,8194,-1392510048,-1,0,
18:10:01.264: 0,0:0:0:3445,1,-117,-924,85,1260,-3360,3780,-1063236986,0,1,976,-14,262,1858,99813,0,0,65344,8194,-1392510048,-1,0,
18:10:01.374: 8,0:0:0:3445,1,29,-924,134,840,-2030,-210,-1063238686,0,1,988,0,216,1858,99824,0,0,65344,8194,-1392510048,-1,0,
18:10:01.482: 0,0:0:0:3445,1,-68,-875,134,4340,-6860,1960,-1063235597,0,1,995,2,243,1858,99824,0,0,65344,8194,-1392510048,-1,0,
18:10:01.696: 32,0:0:0:3445,1,-68,-875,134,2590,-7280,-16380,-1063235597,0,1,1003,-32,258,1858,99813,0,0,65344,8194,-1392510048,-1,0,
18:10:01.807: 32,0:0:0:3445,1,29,-826,134,4340,-3360,-210,-1063238686,0,1,996,-16,213,1857,99820,0,0,65344,8194,-1392510048,-1,0,
18:10:01.916: 0,0:0:0:3445,1,-68,-875,85,3430,-4200,-210,-1063237266,0,1,988,-6,247,1857,99820,0,0,65344,8194,-1392510048,-1,0,
18:10:02.130: 32,0:0:0:3445,1,-68,-875,36,-980,-2030,2450,-1063237266,0,1,988,-8,156,1856,99816,0,0,65344,8194,-1392510048,-1,0,
18:10:02.241: 8,0:0:0:3445,1,-19,-875,231,3850,-6440,-17710,-1063238934,0,1,976,-28,253,1855,99812,0,0,65344,8194,-1392510048,-1,0,
18:10:02.350: 0,0:0:0:3445,1,-117,-826,134,16940,-4690,1120,-1063240602,0,1,970,-20,239,1855,99812,0,0,65344,8194,-1392510048,-1,0,
18:10:02.567: 0,0:0:0:3445,1,-19,-875,134,840,-4200,3360,-1063240602,0,1,970,-37,290,1856,99804,0,0,65344,8194,-1392510048,-1,0,
18:10:02.678: 32,0:0:0:3445,1,78,-875,36,-490,-1540,-1050,-1063242301,0,1,991,1,189,1856,99816,0,0,65344,8194,-1392510048,-1,0,
18:10:02.787: 8,0:0:0:3445,1,-68,-924,85,3850,-3780,1540,-1063239215,0,1,986,2,250,1855,99812,0,0,65344,8194,-1392510048,-1,0,
18:10:02.896: 0,0:0:0:3445,1,-19,-826,182,4340,-10430,1120,-1063240602,0,1,982,-33,175,1855,99800,0,0,65344,8194,-1392510048,-1,0,
18:10:03.113: 0,0:0:0:3445,1,-19,-875,134,4340,-4690,13300,-1063243966,0,1,985,-20,268,1855,99800,0,0,65344,8194,-1392510048,-1,0,
18:10:03.223: 8,0:0:0:3445,1,-117,-826,134,2590,-5110,-15050,-1063244247,0,1,971,-14,208,1855,99823,0,0,65344,8194,-1392510048,-1,0,
18:10:03.333: 8,0:0:0:3445,1,29,-924,134,6090,-8610,-2380,-1063237798,0,1,971,-30,255,1855,99834,0,0,65344,8194,-1392510048,-1,0,
18:10:03.546: 0,0:0:0:3445,1,-117,-826,134,3430,-3360,-1540,-1063234434,0,1,969,17,361,1855,99823,0,0,65344,8194,-1392510048,-1,0,
18:10:03.656: 8,0:0:0:3445,1,-117,-924,134,3850,1120,1120,-1063237237,0,1,980,-59,329,1854,99807,0,0,65344,8194,-1392510048,-1,0,
18:10:03.765: 0,0:0:0:3445,1,29,-826,134,840,-6020,2030,-1063242548,0,1,1004,-36,225,1854,99819,0,0,65344,8194,-1392510048,-1,0,
18:10:03.979: 8,0:0:0:3445,1,-19,-924,85,2100,-3360,1120,-1063239185,0,1,1019,50,137,1854,99826,0,0,65344,8194,-1392510048,-1,0,
18:10:04.087: 32,0:0:0:3445,1,-117,-875,231,2100,-2870,700,-1063237224,0,1,1005,32,107,1854,99803,0,0,65344,8194,-1392510048,-1,0,
18:10:04.194: 0,0:0:0:3445,1,-68,-826,231,5670,-16380,2450,-1063243669,0,1,990,-27,248,1854,99803,0,0,65344,8194,-1392510048,-1,0,
18:10:04.411: 0,0:0:0:3445,1,78,-875,134,350,-7770,-14560,-1063243949,0,1,978,-23,243,1854,99803,0,0,65344,8194,-1392510048,-1,0,
18:10:04.522: 0,0:0:0:3445,1,29,-924,182,350,-6020,1610,-1063243949,0,1,981,-146,282,1853,99799,0,0,65344,8194,-1392510048,-1,0,
18:10:04.633: 32,0:0:0:3445,1,-19,-826,85,350,-1540,2030,-1063245613,0,1,939,3,303,1852,99817,0,0,65344,8194,-1392510048,-1,0,
18:10:04.741: 32,0:0:0:3445,1,-68,-924,85,840,-4200,2450,-1063241117,0,1,955,-16,203,1852,99817,0,0,65344,8194,-1392510048,-1,0,
18:10:04.958: 32,0:0:0:3445,1,-68,-826,36,4760,-2870,1540,-1063240837,0,1,985,32,215,1851,99813,0,0,65344,8194,-1392510048,-1,0,
18:10:05.070: 64,0:0:0:3445,1,-117,-826,182,3010,-2450,2030,-1063242502,0,1,996,-122,218,1852,99817,0,0,65344,8194,-1392510048,-1,0,
18:10:05.180: 0,0:0:0:3445,1,-68,-924,134,2100,-3360,-1960,-1063240837,0,1,1029,-69,180,1851,99813,0,0,65344,8194,-1392510048,-1,0,
18:10:05.396: 32,0:0:0:3445,1,-19,-875,182,2100,-6440,2450,-1063242502,0,1,1013,40,126,1851,99813,0,0,65344,8194,-1392510048,-1,0,
18:10:05.503: 64,0:0:0:3445,1,29,-826,134,2590,-10850,-630,-1063242502,0,1,979,-68,302,1852,99829,0,0,65344,8194,-1392510048,-1,0,
18:10:05.613: 8,0:0:0:3445,1,29,-875,-12,5180,-700,-15050,-1063237478,0,1,955,-155,347,1851,99825,0,0,65344,8194,-1392510048,-1,0,
18:10:05.830: 32,0:0:0:3445,1,78,-875,-12,2590,-2870,7770,-1063238865,0,1,981,22,209,1851,99825,0,0,65344,8194,-1392510048,-1,0,
18:10:05.941: 8,0:0:0:3445,1,-19,-875,182,840,-210,1120,-1063239145,0,1,999,8,180,1851,99825,0,0,65344,8194,-1392510048,-1,0,
18:10:06.050: 8,0:0:0:3445,1,-166,-875,231,1680,-4690,-1540,-1063239145,0,1,990,-17,224,1851,99825,0,0,65344,8194,-1392510048,-1,0,
18:10:06.263: 8,0:0:0:3445,1,-117,-826,182,3010,-2870,1120,-1063239145,0,1,980,-41,230,1852,99829,0,0,65344,8194,-1392510048,-1,0,
18:10:06.370: 0,0:0:0:3445,1,-19,-875,134,350,-1540,-1050,-1063237478,0,1,960,-8,250,1851,99825,0,0,65344,8194,-1392510048,-1,0,
18:10:06.480: 0,0:0:0:3445,1,-68,-777,134,3010,-3360,1540,-1063238865,0,1,964,-12,275,1851,99825,0,0,65344,8194,-1392510048,-1,0,
18:10:06.591: 8,0:0:0:3445,1,-68,-875,134,4760,1120,5530,-1063239145,0,1,975,19,208,1852,99817,0,0,65344,8194,-1392510048,-1,0,
18:10:06.805: 0,0:0:0:3445,1,-19,-777,85,1680,-6440,-1050,-1063240837,0,1,995,60,156,1852,99817,0,0,65344,8194,-1392510048,-1,0,
18:10:06.917: 8,0:0:0:3445,1,-166,-875,231,1260,-4690,700,-1063240837,0,1,965,20,188,1852,99829,0,0,65344,8194,-1392510048,-1,0,
18:10:07.028: 8,0:0:0:3445,1,-117,-875,182,5670,-3360,700,-1063237478,0,1,958,-51,252,1852,99829,0,0,65344,8194,-1392510048,-1,0,
18:10:07.242: 0,0:0:0:3445,1,-19,-826,85,5180,-5530,17290,-1063237198,0,1,967,1,229,1852,99817,0,0,65344,8194,-1392510048,-1,0,
18:10:07.353: 8,0:0:0:3445,1,-117,-924,182,2590,-4690,1120,-1063240557,0,1,975,37,154,1852,99829,0,0,65344,8194,-1392510048,-1,0,
18:10:07.463: 8,0:0:0:3445,1,-68,-777,182,1680,-3780,2450,-1063237478,0,1,971,-51,253,1852,99817,0,0,65344,8194,-1392510048,-1,0,
18:10:07.678: 0,0:0:0:3445,1,-68,-875,85,3850,-5530,-2870,-1063240557,0,1,967,26,228,1852,99806,0,0,65344,8194,-1392510048,-1,0,
18:10:07.787: 0,0:0:0:3445,1,-19,-826,231,3430,-4690,1540,-1063243917,0,1,973,-17,182,1852,99817,0,0,65344,8194,-1392510048,-1,0,
18:10:07.895: 32,0:0:0:3445,1,-68,-972,182,2590,-5110,-3710,-1063241117,0,1,981,-27,257,1852,99806,0,0,65344,8194,-1392510048,-1,0,
18:10:08.004: 8,0:0:0:3445,1,-117,-826,85,3430,-5530,2870,-1063243917,0,1,981,-8,255,1853,99822,0,0,65344,8194,-1392510048,-1,0,
18:10:08.214: 0,0:0:0:3445,1,-19,-924,182,3850,-1540,1540,-1063239171,0,1,980,-35,223,1852,99829,0,0,65344,8194,-1392510048,-1,0,
18:10:08.324: 8,0:0:0:3445,1,-68,-924,36,1260,-9100,280,-1063237478,0,1,975,21,215,1852,99829,0,0,65344,8194,-1392510048,-1,0,
18:10:08.433: 0,0:0:0:3445,1,-68,-972,134,1260,-5110,4200,-1063237198,0,1,985,-14,195,1852,99817,0,0,65344,8194,-1392510048,-1,0,
18:10:08.646: 8,0:0:0:3445,1,78,-875,-12,3920,630,1120,-1063240557,0,1,998,-80,261,1851,99813,0,0,65344,8194,-1392510048,-1,0,
18:10:08.756: 0,0:0:0:3445,1,-19,-924,85,5180,-9100,16870,-1063242502,0,1,997,7,241,1851,99825,0,0,65344,8194,-1392510048,-1,0,
18:10:08.867: 32,0:0:0:3445,1,-117,-875,85,2590,-8610,3360,-1063239145,0,1,973,12,190,1851,99836,0,0,65344,8194,-1392510048,-1,0,
18:10:09.082: 8,0:0:0:3445,1,-19,-924,231,1260,-4200,-1050,-1063236068,0,1,972,0,246,1850,99832,0,0,65344,8194,-1392510048,-1,0,
18:10:09.193: 32,0:0:0:3445,1,-117,-924,-12,1260,-2870,2520,-1063237455,0,1,980,-7,250,1849,99827,0,0,65344,8194,-1392510048,-1,0,
18:10:09.304: 8,0:0:0:3445,1,-19,-924,134,1260,-1120,1190,-1063239400,0,1,993,-94,62,1848,99807,0,0,65344,8194,-1392510048,-1,0,
18:10:09.412: 8,0:0:0:3445,1,29,-924,134,4340,-6440,280,-1063245535,0,1,976,46,289,1847,99815,0,0,65344,8194,-1392510048,-1,0,
18:10:09.628: 8,0:0:0:3445,1,-117,-875,378,840,-8190,-1470,-1063244125,0,1,985,-66,141,1847,99815,0,0,65344,8194,-1392510048,-1,0,
18:10:09.740: 8,0:0:0:3445,1,-68,-875,36,4340,-700,1190,-1063244125,0,1,976,0,269,1846,99822,0,0,65344,8194,-1392510048,-1,0,
18:10:09.850: 0,0:0:0:3445,1,-19,-875,36,-910,-6860,2030,-1063242717,0,1,995,-12,182,1846,99822,0,0,65344,8194,-1392510048,-1,0,
18:10:10.062: 0,0:0:0:3445,1,29,-875,182,-910,-6860,-15890,-1063242717,0,1,984,-51,198,1846,99822,0,0,65344,8194,-1392510048,-1,0,
18:10:10.171: 32,0:0:0:3445,1,-19,-826,85,4760,-4200,3360,-1063242717,0,1,976,-31,253,1846,99822,0,0,65344,8194,-1392510048,-1,0,
18:10:10.283: 32,0:0:0:3445,1,29,-875,36,1680,-2450,3360,-1063242717,0,1,982,14,280,1846,99822,0,0,65344,8194,-1392510048,-1,0,
18:10:10.499: 8,0:0:0:3445,1,-68,-826,-12,3430,-4690,-140,-1063242717,0,1,990,-56,241,1846,99822,0,0,65344,8194,-1392510048,-1,0,
18:10:10.610: 32,0:0:0:3445,1,-68,-875,85,3010,12810,-1050,-1063242717,0,1,1000,29,132,1846,99822,0,0,65344,8194,-1392510048,-1,0,
18:10:10.720: 0,0:0:0:3445,1,-117,-777,134,1680,-3360,-1050,-1063242717,0,1,995,61,165,1846,99822,0,0,65344,8194,-1392510048,-1,0,
18:10:10.830: 0,0:0:0:3445,1,-117,-875,134,350,-7770,1120,-1063242717,0,1,973,-42,274,1847,99815,0,0,65344,8194,-1392510048,-1,0,
18:10:11.048: 0,0:0:0:3445,1,29,-777,36,1260,-3780,-630,-1063244125,0,1,969,-44,234,1847,99815,0,0,65344,8194,-1392510048,-1,0,
18:10:11.158: 0,0:0:0:3445,1,29,-924,36,840,-2030,-630,-1063244125,0,1,973,-38,248,1848,99830,0,0,65344,8194,-1392510048,-1,0,
18:10:11.269: 32,0:0:0:3445,1,29,-875,182,-70,-5530,3360,-1063239389,0,1,988,-7,194,1847,99803,0,0,65344,8194,-1392510048,-1,0,
18:10:11.484: 0,0:0:0:3445,1,-19,-924,182,17010,-4200,2450,-1063247196,0,1,1018,-130,229,1848,99807,0,0,65344,8194,-1392510048,-1,0,
18:10:11.591: 0,0:0:0:3445,1,-19,-924,85,1680,-6020,-630,-1063246094,0,1,994,-22,237,1848,99819,0,0,65344,8194,-1392510048,-1,0,
18:10:11.699: 8,0:0:0:3445,1,-166,-777,36,4340,-5110,-2380,-1063242741,0,1,960,60,262,1848,99819,0,0,65344,8194,-1392510048,-1,0,
18:10:11.914: 0,0:0:0:3445,1,-117,-924,134,840,-7350,5110,-1063242462,0,1,973,-20,248,1848,99807,0,0,65344,8194,-1392510048,-1,0,
18:10:12.025: 32,0:0:0:3445,1,-68,-924,134,4760,1540,-2380,-1063245814,0,1,978,59,171,1848,99812,0,0,65344,8194,-1392510048,-1,0,
18:10:12.135: 32,0:0:0:3445,1,-166,-875,36,350,-6440,1610,-1063244417,0,1,976,61,286,1848,99812,0,0,65344,8194,-1392510048,-1,0,
18:10:12.245: 32,0:0:0:3445,1,-19,-924,182,840,-4690,-1960,-1063244417,0,1,982,-51,241,1848,99823,0,0,65344,8194,-1392510048,-1,0,
18:10:12.458: 0,0:0:0:3445,1,78,-875,134,2590,-5110,-2380,-1063241344,0,1,1001,68,152,1848,99819,0,0,65344,8194,-1392510048,-1,0,
18:10:12.565: 0,0:0:0:3445,1,-19,-826,85,840,-6860,2030,-1063242462,0,1,997,-42,242,1848,99807,0,0,65344,8194,-1392510048,-1,0,
18:10:12.675: 8,0:0:0:3445,1,78,-924,182,3920,-1120,-1470,-1063245814,0,1,1004,-40,167,1848,99819,0,0,65344,8194,-1392510048,-1,0,
18:10:12.891: 0,0:0:0:3445,1,-68,-875,182,840,-2030,1120,-1063242462,0,1,1006,-2,267,1848,99819,0,0,65344,8194,-1392510048,-1,0,
18:10:12.999: 32,0:0:0:3445,1,-68,-826,134,3920,-8610,700,-1063242462,0,1,1000,-42,240,1848,99807,0,0,65344,8194,-1392510048,-1,0,
18:10:13.108: 0,0:0:0:3445,1,-19,-875,134,350,-2030,-3710,-1063245814,0,1,990,-60,258,1848,99830,0,0,65344,8194,-1392510048,-1,0,
18:10:13.321: 32,0:0:0:3445,1,-19,-875,-12,-14910,-4200,3780,-1063239389,0,1,984,-33,226,1847,99826,0,0,65344,8194,-1392510048,-1,0,
18:10:13.432: 8,0:0:0:3445,1,-19,-875,134,2100,-700,1610,-1063240774,0,1,1001,-16,170,1848,99796,0,0,65344,8194,-1392510048,-1,0,
18:10:13.541: 32,0:0:0:3445,1,-68,-875,182,5670,-6440,3780,-1063248608,0,1,993,-64,261,1847,99803,0,0,65344,8194,-1392510048,-1,0,
18:10:13.754: 8,0:0:0:3445,1,-19,-972,134,2100,-5110,2940,-1063247755,0,1,969,-28,237,1847,99803,0,0,65344,8194,-1392510048,-1,0,
18:10:13.866: 0,0:0:0:3445,1,-19,-875,-12,3920,-3360,4200,-1063247755,0,1,963,-37,183,1847,99803,0,0,65344,8194,-1392510048,-1,0,
18:10:13.978: 0,0:0:0:3445,1,-117,-826,134,4340,-5530,-210,-1063247755,0,1,961,48,190,1847,99803,0,0,65344,8194,-1392510048,-1,0,
18:10:14.190: 0,0:0:0:3445,1,-117,-924,134,3430,-5530,-630,-1063247755,0,1,980,-11,239,1846,99810,0,0,65344,8194,-1392510048,-1,0,
18:10:14.299: 0,0:0:0:3445,1,-19,-924,231,1260,-4690,-4130,-1063246345,0,1,976,-19,144,1846,99822,0,0,65344,8194,-1392510048,-1,0,
18:10:14.408: 0,0:0:0:3445,1,-19,-875,85,2590,-3360,1120,-1063242717,0,1,978,-108,279,1846,99810,0,0,65344,8194,-1392510048,-1,0,
18:10:14.519: 0,0:0:0:3445,1,-19,-924,182,2590,-4200,-2380,-1063246066,0,1,994,-29,200,1846,99810,0,0,65344,8194,-1392510048,-1,0,
18:10:14.733: 32,0:0:0:3445,1,-68,-875,85,1680,-2870,-210,-1063246066,0,1,999,-5,236,1847,99815,0,0,65344,8194,-1392510048,-1,0,
18:10:14.841: 0,0:0:0:3445,1,-68,-924,134,-70,-700,-2380,-1063244125,0,1,982,15,242,1847,99815,0,0,65344,8194,-1392510048,-1,0,
18:10:14.950: 0,0:0:0:3445,1,-68,-875,36,-12250,-1540,4690,-1063244125,0,1,986,-35,244,1847,99815,0,0,65344,8194,-1392510048,-1,0,
18:10:15.168: 0,0:0:0:3445,1,-19,-924,85,2100,-5110,-210,-1063244125,0,1,987,21,158,1847,99815,0,0,65344,8194,-1392510048,-1,0,
18:10:15.280: 0,0:0:0:3445,1,-19,-826,85,2100,-2870,-1050,-1063244125,0,1,997,-91,315,1848,99830,0,0,65344,8194,-1392510048,-1,0,
18:10:15.391: 0,0:0:0:3445,1,-19,-924,182,1680,-9520,1610,-1063239389,0,1,1046,-166,113,1847,99815,0,0,65344,8194,-1392510048,-1,0,
18:10:15.604: 0,0:0:0:3445,1,78,-777,85,350,-1120,280,-1063243846,0,1,1054,-92,221,1847,99826,0,0,65344,8194,-1392510048,-1,0,
18:10:15.713: 8,0:0:0:3445,1,-68,-875,85,5180,630,17780,-1063241054,0,1,1016,-9,257,1847,99780,0,0,65344,8194,-1392510048,-1,0,
18:10:15.824: 0,0:0:0:3445,1,-19,-826,36,6510,-4200,16030,-1063253899,0,1,1002,-16,263,1846,99810,0,0,65344,8194,-1392510048,-1,0,
18:10:15.933: 8,0:0:0:3445,1,29,-875,182,3920,-7770,1190,-1063246624,0,1,973,-3,219,1845,99806,0,0,65344,8194,-1392510048,-1,0,
18:10:16.147: 0,0:0:0:3445,1,-68,-826,134,840,-9520,280,-1063247726,0,1,988,-100,222,1845,99817,0,0,65344,8194,-1392510048,-1,0,
18:10:16.258: 32,0:0:0:3445,1,-19,-924,85,3920,-2030,1190,-1063244937,0,1,1017,-46,165,1843,99825,0,0,65344,8194,-1392510048,-1,0,
18:10:16.367: 32,0:0:0:3445,1,29,-875,36,4340,-2870,3360,-1063243521,0,1,1004,-16,177,1843,99813,0,0,65344,8194,-1392510048,-1,0,
18:10:16.583: 8,0:0:0:3445,1,-19,-875,182,4340,-2450,2520,-1063246864,0,1,992,-58,159,1843,99813,0,0,65344,8194,-1392510048,-1,0,
18:10:16.692: 32,0:0:0:3445,1,-19,-826,182,1260,-4690,3430,-1063246864,0,1,973,-5,369,1843,99825,0,0,65344,8194,-1392510048,-1,0,
18:10:16.802: 0,0:0:0:3445,1,-68,-924,85,4760,-7350,3430,-1063243521,0,1,993,-4,11,1842,99809,0,0,65344,8194,-1392510048,-1,0,
18:10:17.016: 0,0:0:0:3445,1,-19,-924,134,-910,-280,1190,-1063248523,0,1,990,-5,217,1840,99823,0,0,65344,8194,-1392510048,-1,0,
18:10:17.125: 0,0:0:0:3445,1,-68,-875,231,840,-8190,6930,-1063246265,0,1,980,-126,313,1840,99819,0,0,65344,8194,-1392510048,-1,0,
18:10:17.231: 8,0:0:0:3445,1,29,-875,36,3500,-5110,5600,-1063247377,0,1,992,-20,146,1839,99815,0,0,65344,8194,-1392510048,-1,0,
18:10:17.442: 32,0:0:0:3445,1,-214,-826,85,1680,-5110,5180,-1063249035,0,1,1012,-106,336,1838,99810,0,0,65344,8194,-1392510048,-1,0,
18:10:17.552: 0,0:0:0:3445,1,-68,-875,134,1260,-6020,-1470,-1063250969,0,1,1025,-77,91,1838,99810,0,0,65344,8194,-1392510048,-1,0,
18:10:17.662: 0,0:0:0:3445,1,-117,-875,-12,-70,-2450,2520,-1063250969,0,1,982,-27,381,1838,99822,0,0,65344,8194,-1392510048,-1,0,
18:10:17.873: 0,0:0:0:3445,1,-166,-777,134,1260,-3360,1680,-1063247636,0,1,973,-98,204,1838,99822,0,0,65344,8194,-1392510048,-1,0,
18:10:17.983: 8,0:0:0:3445,1,-117,-924,-12,3920,-1540,770,-1063247636,0,1,983,6,236,1837,99818,0,0,65344,8194,-1392510048,-1,0,
18:10:18.093: 0,0:0:0:3445,1,-117,-924,36,3010,-210,-1470,-1063249293,0,1,979,0,224,1837,99829,0,0,65344,8194,-1392510048,-1,0,
18:10:18.204: 32,0:0:0:3445,1,-117,-875,85,3010,-4200,1680,-1063246239,0,1,965,-6,192,1837,99806,0,0,65344,8194,-1392510048,-1,0,
18:10:18.417: 0,0:0:0:3445,1,29,-924,182,350,-3780,-140,-1063252347,0,1,946,-37,231,1838,99822,0,0,65344,8194,-1392510048,-1,0,
18:10:18.527: 0,0:0:0:3445,1,-19,-924,134,2170,-4690,-4970,-1063247636,0,1,957,25,233,1838,99822,0,0,65344,8194,-1392510048,-1,0,
18:10:18.638: 8,0:0:0:3445,1,-68,-924,231,-1820,-3780,-1890,-1063247636,0,1,972,28,97,1839,99826,0,0,65344,8194,-1392510048,-1,0,
18:10:18.850: 32,0:0:0:3445,1,-68,-924,182,-490,-1120,280,-1063245978,0,1,974,48,186,1839,99826,0,0,65344,8194,-1392510048,-1,0,
18:10:18.958: 0,0:0:0:3445,1,-68,-875,85,1680,-6860,1190,-1063245978,0,1,965,18,210,1839,99803,0,0,65344,8194,-1392510048,-1,0,
18:10:19.065: 0,0:0:0:3445,1,-166,-875,182,3010,-2030,1610,-1063252370,0,1,974,-52,231,1840,99819,0,0,65344,8194,-1392510048,-1,0,
18:10:19.274: 64,0:0:0:3445,1,29,-924,36,2590,-2450,-140,-1063247655,0,1,982,22,208,1840,99830,0,0,65344,8194,-1392510048,-1,0,
18:10:19.383: 8,0:0:0:3445,1,-117,-875,85,-1400,-2450,6440,-1063244318,0,1,996,16,255,1840,99812,0,0,65344,8194,-1392510048,-1,0,
18:10:19.493: 0,0:0:0:3445,1,-19,-972,134,2590,-5110,-1050,-1063249045,0,1,997,-104,119,1840,99823,0,0,65344,8194,-1392510048,-1,0,
18:10:19.706: 0,0:0:0:3445,1,-68,-875,182,2590,-700,2940,-1063246265,0,1,986,-23,269,1840,99823,0,0,65344,8194,-1392510048,-1,0,
18:10:19.816: 8,0:0:0:3445,1,-117,-972,85,840,-6860,1190,-1063246265,0,1,1001,-15,150,1841,99828,0,0,65344,8194,-1392510048,-1,0,
18:10:19.926: 8,0:0:0:3445,1,-19,-875,36,2590,-3360,1120,-1063244327,0,1,992,-43,223,1841,99828,0,0,65344,8194,-1392510048,-1,0,
18:10:20.036: 0,0:0:0:3445,1,-117,-875,134,1680,-3780,3360,-1063244049,0,1,982,1,204,1842,99820,0,0,65344,8194,-1392510048,-1,0,
18:10:20.249: 32,0:0:0:3445,1,-19,-826,134,4760,-5530,-1050,-1063245728,0,1,990,-61,154,1842,99820,0,0,65344,8194,-1392510048,-1,0,
18:10:20.357: 8,0:0:0:3445,1,-19,-875,85,1260,-700,-2800,-1063246006,0,1,984,57,270,1842,99809,0,0,65344,8194,-1392510048,-1,0,
18:10:20.466: 32,0:0:0:3445,1,-68,-875,85,1680,-4690,-1960,-1063249068,0,1,1000,-62,205,1843,99825,0,0,65344,8194,-1392510048,-1,0,
18:10:20.683: 32,0:0:0:3445,1,-19,-875,134,-910,-1120,-15890,-1063244068,0,1,975,-24,199,1843,99825,0,0,65344,8194,-1392510048,-1,0,
18:10:20.792: 0,0:0:0:3445,1,-68,-924,134,-13160,-3360,4200,-1063244068,0,1,991,-44,223,1843,99825,0,0,65344,8194,-1392510048,-1,0,
18:10:20.898: 0,0:0:0:3445,1,78,-826,182,3430,-3780,16450,-1063244068,0,1,986,-22,198,1843,99825,0,0,65344,8194,-1392510048,-1,0,
18:10:21.111: 32,0:0:0:3445,1,-117,-875,36,2100,-1540,2870,-1063244068,0,1,978,10,228,1843,99813,0,0,65344,8194,-1392510048,-1,0,
18:10:21.218: 0,0:0:0:3445,1,-68,-875,85,3010,-3780,-210,-1063247409,0,1,959,-23,191,1843,99825,0,0,65344,8194,-1392510048,-1,0,
18:10:21.326: 32,0:0:0:3445,1,-68,-924,134,-980,-4200,-2870,-1063244068,0,1,969,6,206,1845,99817,0,0,65344,8194,-1392510048,-1,0,
18:10:21.539: 0,0:0:0:3445,1,-68,-924,85,-490,-6020,1540,-1063245204,0,1,980,-52,241,1845,99817,0,0,65344,8194,-1392510048,-1,0,
18:10:21.650: 8,0:0:0:3445,1,29,-924,134,-70,-3780,3360,-1063244658,0,1,996,0,223,1846,99833,0,0,65344,8194,-1392510048,-1,0,
18:10:21.759: 32,0:0:0:3445,1,-117,-924,85,1680,-2450,-210,-1063239647,0,1,991,-7,244,1846,99822,0,0,65344,8194,-1392510048,-1,0,
18:10:21.975: 0,0:0:0:3445,1,-19,-875,134,3850,-3780,-210,-1063242438,0,1,998,-34,230,1846,99822,0,0,65344,8194,-1392510048,-1,0,
18:10:22.086: 32,0:0:0:3445,1,-68,-826,85,1260,-6020,-210,-1063242717,0,1,987,-4,266,1847,99826,0,0,65344,8194,-1392510048,-1,0,
18:10:22.197: 0,0:0:0:3445,1,29,-826,36,3010,-1120,3360,-1063241054,0,1,988,-8,219,1847,99826,0,0,65344,8194,-1392510048,-1,0,
18:10:22.308: 8,0:0:0:3445,1,-19,-875,36,2590,-6860,17710,-1063241054,0,1,994,-15,236,1847,99838,0,0,65344,8194,-1392510048,-1,0,
18:10:22.526: 0,0:0:0:3445,1,-19,-826,85,2590,-4690,-630,-1063237703,0,1,1003,-8,206,1847,99838,0,0,65344,8194,-1392510048,-1,0,
18:10:22.633: 8,0:0:0:3445,1,29,-924,134,17010,-6020,280,-1063237424,0,1,996,-47,222,1847,99803,0,0,65344,8194,-1392510048,-1,0,
18:10:22.741: 32,0:0:0:3445,1,-68,-875,85,1680,-2450,5110,-1063247196,0,1,976,-25,259,1846,99822,0,0,65344,8194,-1392510048,-1,0,
18:10:22.954: 0,0:0:0:3445,1,-19,-924,85,1680,1120,2940,-1063242996,0,1,967,6,226,1846,99845,0,0,65344,8194,-1392510048,-1,0,
18:10:23.065: 0,0:0:0:3445,1,-68,-972,36,4760,-210,-3710,-1063236299,0,1,983,-2,219,1845,99829,0,0,65344,8194,-1392510048,-1,0,
18:10:23.176: 0,0:0:0:3445,1,-68,-875,85,-70,-6020,1610,-1063241032,0,1,987,0,240,1842,99832,0,0,65344,8194,-1392510048,-1,0,
18:10:23.287: 0,0:0:0:3445,1,-19,-875,182,2590,-5530,700,-1063241840,0,1,981,-53,175,1841,99839,0,0,65344,8194,-1392510048,-1,0,
18:10:23.502: 8,0:0:0:3445,1,29,-875,182,4340,-10430,280,-1063240989,0,1,972,-13,123,1840,99812,0,0,65344,8194,-1392510048,-1,0,
18:10:23.613: 0,0:0:0:3445,1,-68,-875,85,1260,210,1610,-1063249045,0,1,965,-10,225,1840,99807,0,0,65344,8194,-1392510048,-1,0,
18:10:23.724: 32,0:0:0:3445,1,-19,-875,134,3010,-2870,-1050,-1063250714,0,1,978,-48,243,1839,99803,0,0,65344,8194,-1392510048,-1,0,
18:10:23.936: 0,0:0:0:3445,1,-68,-924,85,3920,-7350,4690,-1063252370,0,1,996,-8,169,1838,99787,0,0,65344,8194,-1392510048,-1,0,
18:10:24.047: 0,0:0:0:3445,1,-68,-826,134,3430,210,16870,-1063259209,0,1,1001,-19,227,1838,99810,0,0,65344,8194,-1392510048,-1,0,
18:10:24.158: 8,0:0:0:3445,1,-19,-924,85,3010,-6440,-630,-1063251525,0,1,992,-32,253,1838,99810,0,0,65344,8194,-1392510048,-1,0,
18:10:24.371: 32,0:0:0:3445,1,-19,-875,134,-490,-3360,2450,-1063250969,0,1,995,-25,205,1839,99815,0,0,65344,8194,-1392510048,-1,0,
18:10:24.482: 0,0:0:0:3445,1,-68,-875,134,1680,-6440,-140,-1063249035,0,1,981,-25,219,1838,99822,0,0,65344,8194,-1392510048,-1,0,
18:10:24.591: 0,0:0:0:3445,1,-19,-826,85,3430,-4200,6930,-1063247636,0,1,982,-20,219,1839,99826,0,0,65344,8194,-1392510048,-1,0,
18:10:24.699: 0,0:0:0:3445,1,29,-875,182,2170,-3360,1610,-1063245978,0,1,969,-29,228,1839,99815,0,0,65344,8194,-1392510048,-1,0,
18:10:24.915: 32,0:0:0:3445,1,-68,-875,36,1260,-1120,2030,-1063249035,0,1,970,14,234,1839,99826,0,0,65344,8194,-1392510048,-1,0,
18:10:25.027: 0,0:0:0:3445,1,-68,-875,134,-490,-6440,-1050,-1063245978,0,1,968,-31,198,1840,99830,0,0,65344,8194,-1392510048,-1,0,
18:10:25.138: 0,0:0:0:3445,1,-117,-875,36,350,-700,-140,-1063244318,0,1,978,0,228,1840,99830,0,0,65344,8194,-1392510048,-1,0,
18:10:25.353: 32,0:0:0:3445,1,-19,-875,36,2100,-4200,2940,-1063244040,0,1,982,-17,246,1839,99815,0,0,65344,8194,-1392510048,-1,0,
18:10:25.464: 0,0:0:0:3445,1,-68,-875,134,1680,-5110,-140,-1063248757,0,1,984,-26,251,1840,99830,0,0,65344,8194,-1392510048,-1,0,
18:10:25.571: 32,0:0:0:3445,1,-19,-777,134,840,-2450,770,-1063244318,0,1,983,10,177,1839,99826,0,0,65344,8194,-1392510048,-1,0,
18:10:25.681: 8,0:0:0:3445,1,-68,-875,134,840,-4690,-4970,-1063245700,0,1,976,-23,208,1839,99815,0,0,65344,8194,-1392510048,-1,0,
18:10:25.898: 0,0:0:0:3445,1,-19,-875,85,-70,-5530,-14980,-1063248757,0,1,997,-31,223,1839,99826,0,0,65344,8194,-1392510048,-1,0,
18:10:26.006: 0,0:0:0:3445,1,29,-924,134,2170,-5110,4270,-1063245978,0,1,995,-43,193,1839,99815,0,0,65344,8194,-1392510048,-1,0,
18:10:26.116: 0,0:0:0:3445,1,-68,-875,85,1260,-3360,2450,-1063249035,0,1,982,-8,244,1839,99815,0,0,65344,8194,-1392510048,-1,0,
18:10:26.329: 0,0:0:0:3445,1,-19,-875,134,1680,-5110,1610,-1063249035,0,1,971,-39,170,1839,99826,0,0,65344,8194,-1392510048,-1,0,
18:10:26.435: 0,0:0:0:3445,1,-19,-924,134,3010,-4200,-17640,-1063245978,0,1,973,-12,262,1839,99815,0,0,65344,8194,-1392510048,-1,0,
18:10:26.545: 32,0:0:0:3445,1,-19,-972,134,-13160,-2030,2940,-1063249035,0,1,962,-12,216,1840,99830,0,0,65344,8194,-1392510048,-1,0,
18:10:26.757: 32,0:0:0:3445,1,-68,-924,182,2100,-2450,280,-1063244318,0,1,976,-13,263,1840,99830,0,0,65344,8194,-1392510048,-1,0,
18:10:26.867: 8,0:0:0:3445,1,-68,-924,36,3430,-6440,2450,-1063244040,0,1,982,23,192,1840,99830,0,0,65344,8194,-1392510048,-1,0,
18:10:26.978: 0,0:0:0:3445,1,-117,-924,134,1680,-2870,-13650,-1063244040,0,1,985,-38,233,1840,99823,0,0,65344,8194,-1392510048,-1,0,
18:10:27.191: 8,0:0:0:3445,1,-19,-875,182,4340,-6440,-1960,-1063245987,0,1,995,-3,261,1841,99839,0,0,65344,8194,-1392510048,-1,0,
18:10:27.299: 0,0:0:0:3445,1,-117,-826,134,2590,-6860,4200,-1063241267,0,1,996,-22,209,1841,99839,0,0,65344,8194,-1392510048,-1,0,
18:10:27.408: 2,0:0:0:3445,1,-68,-875,134,2100,-5530,-1050,-1063240989,0,1,980,-32,248,1841,99816,0,0,65344,8194,-1392510048,-1,0,
18:10:27.625: 8,0:0:0:3445,1,-68,-826,85,4340,-4200,2030,-1063247387,0,1,970,-3,239,1842,99820,0,0,65344,8194,-1392510048,-1,0,
18:10:27.736: 8,0:0:0:3445,1,-19,-875,134,-13160,-3780,700,-1063246006,0,1,985,-28,226,1843,99825,0,0,65344,8194,-1392510048,-1,0,
18:10:27.845: 32,0:0:0:3445,1,-19,-924,85,-70,-4200,-1050,-1063244068,0,1,985,-8,311,1843,99825,0,0,65344,8194,-1392510048,-1,0,
18:10:27.956: 0,0:0:0:3445,1,-19,-875,85,1260,-3360,8190,-1063244068,0,1,980,4,156,1845,99840,0,0,65344,8194,-1392510048,-1,0,
18:10:28.174: 0,0:0:0:3445,1,-19,-875,85,350,-1540,280,-1063238792,0,1,957,-46,266,1845,99829,0,0,65344,8194,-1392510048,-1,0,
18:10:28.284: 0,0:0:0:3445,1,-19,-972,85,840,-6860,2030,-1063241032,0,1,987,10,284,1845,99829,0,0,65344,8194,-1392510048,-1,0,
18:10:28.395: 32,0:0:0:3445,1,-19,-875,182,840,-4690,280,-1063241032,0,1,1015,-32,164,1846,99833,0,0,65344,8194,-1392510048,-1,0,
18:10:28.605: 8,0:0:0:3445,1,-19,-875,85,350,-210,2940,-1063239368,0,1,978,-4,264,1846,99822,0,0,65344,8194,-1392510048,-1,0,
18:10:28.714: 0,0:0:0:3445,1,-68,-875,85,3430,-6020,-210,-1063242438,0,1,955,-7,276,1847,99815,0,0,65344,8194,-1392510048,-1,0,
18:10:28.825: 32,0:0:0:3445,1,78,-875,134,3920,-7350,2450,-1063244125,0,1,975,-78,211,1847,99826,0,0,65344,8194,-1392510048,-1,0,
18:10:28.936: 32,0:0:0:3445,1,-19,-972,134,5180,-1120,-1540,-1063241054,0,1,1007,4,269,1847,99826,0,0,65344,8194,-1392510048,-1,0,
18:10:29.149: 8,0:0:0:3445,1,-68,-875,231,3010,-6020,210,-1063241054,0,1,1017,31,196,1848,99819,0,0,65344,8194,-1392510048,-1,0,
18:10:29.257: 32,0:0:0:3445,1,-19,-924,85,2590,-3360,3360,-1063242462,0,1,981,-40,261,1848,99823,0,0,65344,8194,-1392510048,-1,0,
18:10:29.366: 0,0:0:0:3445,1,-68,-875,85,2590,-6440,-630,-1063241344,0,1,950,-18,294,1848,99819,0,0,65344,8194,-1392510048,-1,0,
18:10:29.579: 8,0:0:0:3445,1,-19,-875,85,2590,-6020,-630,-1063242462,0,1,972,12,141,1848,99819,0,0,65344,8194,-1392510048,-1,0,
18:10:29.686: 32,0:0:0:3445,1,-68,-924,85,1260,-1540,-2870,-1063242462,0,1,983,-20,231,1848,99830,0,0,65344,8194,-1392510048,-1,0,
18:10:29.796: 32,0:0:0:3445,1,-19,-972,85,-70,-6440,700,-1063239389,0,1,980,-22,274,1847,99815,0,0,65344,8194,-1392510048,-1,0,
18:10:30.008: 8,0:0:0:3445,1,-19,-826,85,1260,-5530,-3710,-1063243846,0,1,970,-11,191,1847,99815,0,0,65344,8194,-1392510048,-1,0,
18:10:30.119: 0,0:0:0:3445,1,-68,-826,36,1260,-3780,2870,-1063244125,0,1,968,-13,264,1847,99815,0,0,65344,8194,-1392510048,-1,0,
18:10:30.230: 32,0:0:0:3445,1,29,-875,231,2100,-5530,4690,-1063244125,0,1,1000,-36,223,1847,99815,0,0,65344,8194,-1392510048,-1,0,
18:10:30.445: 32,0:0:0:3445,1,-19,-924,182,5180,-4690,-1470,-1063244125,0,1,1000,-14,227,1847,99815,0,0,65344,8194,-1392510048,-1,0,
18:10:30.554: 32,0:0:0:3445,1,-68,-826,85,840,-700,2030,-1063244125,0,1,997,9,160,1846,99822,0,0,65344,8194,-1392510048,-1,0,
18:10:30.665: 0,0:0:0:3445,1,78,-826,134,1260,-8610,16450,-1063242717,0,1,977,-57,238,1847,99815,0,0,65344,8194,-1392510048,-1,0,
18:10:30.776: 0,0:0:0:3445,1,-19,-875,182,1260,-2450,15050,-1063244125,0,1,981,3,204,1847,99815,0,0,65344,8194,-1392510048,-1,0,
18:10:30.992: 8,0:0:0:3445,1,-68,-875,85,2100,-5530,2450,-1063244125,0,1,979,-24,220,1847,99826,0,0,65344,8194,-1392510048,-1,0,
18:10:31.103: 0,0:0:0:3445,1,-19,-875,36,1680,-700,1610,-1063241054,0,1,975,-54,288,1848,99830,0,0,65344,8194,-1392510048,-1,0,
18:10:31.215: 0,0:0:0:3445,1,-19,-972,85,3430,-4200,1540,-1063239389,0,1,980,0,238,1848,99823,0,0,65344,8194,-1392510048,-1,0,
18:10:31.430: 0,0:0:0:3445,1,-68,-875,182,-1820,-2450,700,-1063241065,0,1,992,-10,171,1848,99819,0,0,65344,8194,-1392510048,-1,0,
18:10:31.542: 0,0:0:0:3445,1,-68,-875,85,1260,-2030,4620,-1063242462,0,1,993,-22,257,1848,99823,0,0,65344,8194,-1392510048,-1,0,
18:10:31.650: 0,0:0:0:3445,1,-19,-875,134,2100,-3360,-2380,-1063241344,0,1,994,29,222,1849,99827,0,0,65344,8194,-1392510048,-1,0,
18:10:31.759: 32,0:0:0:3445,1,-68,-826,134,2100,-8190,1120,-1063239680,0,1,1000,-21,202,1848,99835,0,0,65344,8194,-1392510048,-1,0,
18:10:31.974: 0,0:0:0:3445,1,-19,-875,134,3430,-2450,-630,-1063237713,0,1,998,-3,255,1848,99812,0,0,65344,8194,-1392510048,-1,0,
18:10:32.084: 8,0:0:0:3445,1,-68,-875,36,3010,-5530,-630,-1063244138,0,1,981,-26,237,1849,99827,0,0,65344,8194,-1392510048,-1,0,
18:10:32.194: 0,0:0:0:3445,1,-68,-777,85,840,-3360,210,-1063239680,0,1,985,-7,228,1849,99827,0,0,65344,8194,-1392510048,-1,0,
18:10:32.407: 0,0:0:0:3445,1,-19,-826,-12,-490,210,-1540,-1063239400,0,1,1000,-26,230,1849,99827,0,0,65344,8194,-1392510048,-1,0,
18:10:32.516: 32,0:0:0:3445,1,-68,-924,85,3010,-4200,1120,-1063239400,0,1,1009,-51,244,1850,99820,0,0,65344,8194,-1392510048,-1,0,
18:10:32.627: 32,0:0:0:3445,1,-19,-924,134,1260,-3360,2450,-1063240810,0,1,992,-16,189,1850,99820,0,0,65344,8194,-1392510048,-1,0,
18:10:32.843: 0,0:0:0:3445,1,-19,-875,85,3430,-6440,-2380,-1063241090,0,1,959,-19,272,1850,99820,0,0,65344,8194,-1392510048,-1,0,
18:10:32.953: 8,0:0:0:3445,1,29,-924,-12,4760,-3780,-3290,-1063241090,0,1,977,25,212,1850,99832,0,0,65344,8194,-1392510048,-1,0,
18:10:33.062: 0,0:0:0:3445,1,-19,-875,134,4340,-4200,700,-1063237734,0,1,981,8,174,1850,99820,0,0,65344,8194,-1392510048,-1,0,
18:10:33.173: 8,0:0:0:3445,1,-19,-972,134,3010,-700,-3290,-1063240810,0,1,973,-12,223,1850,99820,0,0,65344,8194,-1392510048,-1,0,
18:10:33.388: 0,0:0:0:3445,1,-68,-826,134,-490,-2450,-2870,-1063241090,0,1,977,-37,238,1850,99809,0,0,65344,8194,-1392510048,-1,0,
18:10:33.497: 0,0:0:0:3445,1,78,-875,182,1680,-5110,210,-1063244166,0,1,1008,-33,169,1850,99820,0,0,65344,8194,-1392510048,-1,0,
18:10:33.606: 8,0:0:0:3445,1,-68,-875,182,2100,-3360,-1120,-1063241090,0,1,1001,22,208,1851,99813,0,0,65344,8194,-1392510048,-1,0,
18:10:33.823: 32,0:0:0:3445,1,-68,-924,231,2100,-4690,700,-1063242502,0,1,987,-36,260,1851,99802,0,0,65344,8194,-1392510048,-1,0,
18:10:33.935: 0,0:0:0:3445,1,-19,-826,85,3430,-5110,-1120,-1063245580,0,1,984,-40,227,1851,99813,0,0,65344,8194,-1392510048,-1,0,
18:10:34.045: 2,0:0:0:3445,1,-117,-924,134,3010,-5110,700,-1063242782,0,1,991,-30,219,1852,99829,0,0,65344,8194,-1392510048,-1,0,
18:10:34.258: 32,0:0:0:3445,1,-68,-875,182,1680,-3780,1540,-1063237478,0,1,998,-35,204,1852,99829,0,0,65344,8194,-1392510048,-1,0,
18:10:34.365: 32,0:0:0:3445,1,-19,-924,134,4340,-6860,-210,-1063237198,0,1,983,-24,244,1852,99817,0,0,65344,8194,-1392510048,-1,0,
18:10:34.474: 32,0:0:0:3445,1,-117,-924,85,770,-2870,16800,-1063240557,0,1,990,40,212,1852,99806,0,0,65344,8194,-1392510048,-1,0,
18:10:34.688: 32,0:0:0:3445,1,29,-875,36,1260,-5950,1120,-1063243917,0,1,996,-78,222,1853,99810,0,0,65344,8194,-1392510048,-1,0,
18:10:34.798: 0,0:0:0:3445,1,-19,-875,134,2590,-7280,-1960,-1063242532,0,1,984,-32,253,1852,99817,0,0,65344,8194,-1392510048,-1,0,
18:10:34.908: 0,0:0:0:3445,1,-68,-972,134,1260,-9100,2450,-1063240837,0,1,974,-1,259,1853,99822,0,0,65344,8194,-1392510048,-1,0,
18:10:35.019: 32,0:0:0:3445,1,-19,-875,85,770,-3780,1540,-1063238891,0,1,982,-25,212,1852,99817,0,0,65344,8194,-1392510048,-1,0,
18:10:35.233: 8,0:0:0:3445,1,-19,-875,85,2590,-700,1960,-1063240837,0,1,975,-20,238,1853,99810,0,0,65344,8194,-1392510048,-1,0,
18:10:35.342: 8,0:0:0:3445,1,-19,-875,182,2100,-6860,3290,-1063242252,0,1,992,-26,225,1853,99822,0,0,65344,8194,-1392510048,-1,0,
18:10:35.451: 32,0:0:0:3445,1,29,-924,182,-70,-5110,-17220,-1063238891,0,1,1003,-31,239,1853,99822,0,0,65344,8194,-1392510048,-1,0,
18:10:35.661: 0,0:0:0:3445,1,-68,-826,85,2590,-3360,-4620,-1063238891,0,1,976,5,248,1853,99822,0,0,65344,8194,-1392510048,-1,0,
18:10:35.768: 8,0:0:0:3445,1,-19,-875,85,-14910,210,4200,-1063238891,0,1,971,-12,226,1852,99817,0,0,65344,8194,-1392510048,-1,0,
18:10:35.877: 0,0:0:0:3445,1,-68,-875,36,3430,-6440,4620,-1063240837,0,1,974,-18,178,1852,99817,0,0,65344,8194,-1392510048,-1,0,
18:10:36.088: 0,0:0:0:3445,1,-19,-875,182,4760,-4200,-210,-1063240837,0,1,962,-43,267,1852,99806,0,0,65344,8194,-1392510048,-1,0,
18:10:36.198: 8,0:0:0:3445,1,-19,-875,134,3430,-8610,210,-1063243917,0,1,957,4,172,1852,99806,0,0,65344,8194,-1392510048,-1,0,
18:10:36.309: 32,0:0:0:3445,1,-68,-875,134,1260,-2450,5530,-1063244197,0,1,971,-34,239,1852,99817,0,0,65344,8194,-1392510048,-1,0,
18:10:36.521: 8,0:0:0:3445,1,29,-972,36,5180,-8610,-210,-1063241117,0,1,983,-34,248,1853,99810,0,0,65344,8194,-1392510048,-1,0,
18:10:36.629: 0,0:0:0:3445,1,-117,-924,134,1260,-8190,-630,-1063242252,0,1,965,9,250,1853,99810,0,0,65344,8194,-1392510048,-1,0,
18:10:36.740: 8,0:0:0:3445,1,-68,-826,134,4760,-2450,1120,-1063242252,0,1,974,-14,212,1853,99810,0,0,65344,8194,-1392510048,-1,0,
18:10:36.956: 0,0:0:0:3445,1,29,-875,-61,4340,-1540,210,-1063242252,0,1,970,-2,135,1853,99810,0,0,65344,8194,-1392510048,-1,0,
18:10:37.066: 0,0:0:0:3445,1,-19,-826,36,4340,1540,15050,-1063242252,0,1,963,-12,318,1853,99799,0,0,65344,8194,-1392510048,-1,0,
18:10:37.177: 8,0:0:0:3445,1,-68,-924,134,2100,-4690,2940,-1063245333,0,1,987,-30,194,1852,99806,0,0,65344,8194,-1392510048,-1,0,
18:10:37.286: 32,0:0:0:3445,1,-19,-826,134,4760,-7770,-2380,-1063244197,0,1,1012,-19,217,1852,99806,0,0,65344,8194,-1392510048,-1,0,
18:10:37.498: 0,0:0:0:3445,1,-68,-924,182,3430,-2870,700,-1063244197,0,1,999,-9,180,1850,99809,0,0,65344,8194,-1392510048,-1,0,
18:10:37.608: 0,0:0:0:3445,1,-19,-826,134,3430,-4200,2450,-1063244446,0,1,986,-4,218,1849,99804,0,0,65344,8194,-1392510048,-1,0,
18:10:37.715: 32,0:0:0:3445,1,-19,-826,134,1680,-5110,700,-1063246108,0,1,975,-13,268,1849,99804,0,0,65344,8194,-1392510048,-1,0,
18:10:37.927: 0,0:0:0:3445,1,-68,-875,85,2100,-1120,-1050,-1063246388,0,1,989,-9,223,1849,99816,0,0,65344,8194,-1392510048,-1,0,
18:10:38.038: 8,0:0:0:3445,1,29,-924,85,1260,-210,700,-1063243034,0,1,987,-23,265,1849,99816,0,0,65344,8194,-1392510048,-1,0,
18:10:38.148: 8,0:0:0:3445,1,29,-972,182,-70,-5110,280,-1063242754,0,1,994,-7,146,1848,99812,0,0,65344,8194,-1392510048,-1,0,
18:10:38.362: 32,0:0:0:3445,1,-68,-875,134,3010,-2450,-17220,-1063244417,0,1,1006,20,284,1848,99823,0,0,65344,8194,-1392510048,-1,0,
18:10:38.472: 32,0:0:0:3445,1,-68,-924,85,350,-5530,700,-1063241344,0,1,1001,-52,196,1848,99807,0,0,65344,8194,-1392510048,-1,0,
18:10:38.583: 0,0:0:0:3445,1,-68,-972,134,2590,-2450,-2380,-1063245814,0,1,986,-5,197,1848,99796,0,0,65344,8194,-1392510048,-1,0,
18:10:38.689: 0,0:0:0:3445,1,-19,-875,134,1260,-4690,2450,-1063248888,0,1,979,-18,242,1848,99807,0,0,65344,8194,-1392510048,-1,0,
18:10:38.906: 0,0:0:0:3445,1,-19,-924,134,2100,-5530,-140,-1063246094,0,1,978,-37,152,1848,99807,0,0,65344,8194,-1392510048,-1,0,
18:10:39.016: 0,0:0:0:3445,1,-68,-875,85,840,-6440,-16800,-1063246094,0,1,982,0,240,1847,99803,0,0,65344,8194,-1392510048,-1,0,
18:10:39.125: 0,0:0:0:3445,1,-68,-972,182,3430,-5110,2450,-1063247755,0,1,984,-15,255,1847,99815,0,0,65344,8194,-1392510048,-1,0,
18:10:39.338: 32,0:0:0:3445,1,-19,-924,85,3430,-4690,-1050,-1063244404,0,1,983,-39,215,1848,99796,0,0,65344,8194,-1392510048,-1,0,
18:10:39.448: 0,0:0:0:3445,1,-117,-924,-12,3010,-2450,1120,-1063248888,0,1,978,-9,274,1848,99807,0,0,65344,8194,-1392510048,-1,0,
18:10:39.557: 0,0:0:0:3445,1,-68,-875,-12,3010,-6020,-140,-1063246094,0,1,994,-28,214,1848,99819,0,0,65344,8194,-1392510048,-1,0,
18:10:39.768: 8,0:0:0:3445,1,-68,-972,134,350,3710,-210,-1063242741,0,1,993,12,236,1848,99784,0,0,65344,8194,-1392510048,-1,0,
18:10:39.877: 0,0:0:0:3445,1,-117,-875,36,840,-7770,-1960,-1063252240,0,1,998,-4,209,1847,99803,0,0,65344,8194,-1392510048,-1,0,
18:10:39.988: 32,0:0:0:3445,1,-19,-924,85,840,-2870,2940,-1063248034,0,1,982,-36,197,1847,99803,0,0,65344,8194,-1392510048,-1,0,
18:10:40.100: 0,0:0:0:3445,1,-19,-875,85,4340,-6440,1610,-1063247755,0,1,983,-27,259,1847,99803,0,0,65344,8194,-1392510048,-1,0,
18:10:40.313: 8,0:0:0:3445,1,-68,-875,134,3010,-3780,2940,-1063247755,0,1,988,-14,183,1847,99815,0,0,65344,8194,-1392510048,-1,0,
18:10:40.419: 32,0:0:0:3445,1,-68,-924,182,3920,-7350,-630,-1063244404,0,1,982,-15,246,1847,99792,0,0,65344,8194,-1392510048,-1,0,
18:10:40.526: 0,0:0:0:3445,1,-19,-875,182,4340,-5530,700,-1063250547,0,1,992,-19,235,1847,99815,0,0,65344,8194,-1392510048,-1,0,
18:10:40.739: 32,0:0:0:3445,1,-68,-924,36,1680,210,2030,-1063244404,0,1,985,-22,231,1847,99803,0,0,65344,8194,-1392510048,-1,0,
18:10:40.849: 32,0:0:0:3445,1,-19,-875,85,840,-2450,280,-1063247476,0,1,976,23,217,1846,99787,0,0,65344,8194,-1392510048,-1,0,
18:10:40.959: 0,0:0:0:3445,1,-68,-875,134,350,-5530,2030,-1063252764,0,1,981,-14,273,1846,99787,0,0,65344,8194,-1392510048,-1,0,
18:10:41.166: 32,0:0:0:3445,1,-19,-875,85,2590,-2870,700,-1063253044,0,1,978,-17,230,1846,99810,0,0,65344,8194,-1392510048,-1,0,
18:10:41.274: 0,0:0:0:3445,1,-19,-826,134,1260,-4200,1610,-1063246624,0,1,973,-16,217,1846,99799,0,0,65344,8194,-1392510048,-1,0,
18:10:41.381: 8,0:0:0:3445,1,-19,-924,134,350,-2030,-1050,-1063249136,0,1,970,-14,166,1845,99795,0,0,65344,8194,-1392510048,-1,0,
18:10:41.594: 8,0:0:0:3445,1,-19,-826,36,840,-2870,-1050,-1063251074,0,1,976,-41,268,1845,99817,0,0,65344,8194,-1392510048,-1,0,
18:10:41.705: 32,0:0:0:3445,1,-19,-924,134,4760,-6860,2870,-1063244937,0,1,994,-45,193,1845,99806,0,0,65344,8194,-1392510048,-1,0,
18:10:41.815: 8,0:0:0:3445,1,-19,-875,134,2590,-3780,-2380,-1063247726,0,1,983,-2,211,1845,99817,0,0,65344,8194,-1392510048,-1,0,
18:10:42.028: 8,0:0:0:3445,1,-19,-875,134,4340,-2870,700,-1063244937,0,1,987,-49,19,1845,99806,0,0,65344,8194,-1392510048,-1,0,
18:10:42.138: 0,0:0:0:3445,1,-19,-924,36,3010,3710,-1050,-1063247726,0,1,974,-6,319,1845,99795,0,0,65344,8194,-1392510048,-1,0,
18:10:42.244: 8,0:0:0:3445,1,-19,-875,231,2100,-12180,2940,-1063251074,0,1,992,10,251,1843,99802,0,0,65344,8194,-1392510048,-1,0,
18:10:42.457: 0,0:0:0:3445,1,-68,-924,-12,840,-2450,-630,-1063250208,0,1,1000,-42,161,1843,99813,0,0,65344,8194,-1392510048,-1,0,
18:10:42.568: 0,0:0:0:3445,1,-19,-875,134,3010,-3780,-16800,-1063247143,0,1,993,-25,305,1843,99802,0,0,65344,8194,-1392510048,-1,0,
18:10:42.678: 0,0:0:0:3445,1,29,-875,134,4340,-4690,-210,-1063249929,0,1,979,-18,166,1843,99813,0,0,65344,8194,-1392510048,-1,0,
18:10:42.788: 8,0:0:0:3445,1,-19,-924,85,1260,-2450,-210,-1063247143,0,1,979,-53,284,1843,99802,0,0,65344,8194,-1392510048,-1,0,
18:10:43.001: 0,0:0:0:3445,1,-68,-875,85,3430,-6440,1610,-1063249929,0,1,984,-13,224,1845,99806,0,0,65344,8194,-1392510048,-1,0,
18:10:43.107: 8,0:0:0:3445,1,-68,-972,85,3430,-5110,280,-1063248005,0,1,988,-19,254,1845,99806,0,0,65344,8194,-1392510048,-1,0,
18:10:43.217: 32,0:0:0:3445,1,-19,-924,134,17430,-2450,6020,-1063248005,0,1,984,-42,311,1845,99795,0,0,65344,8194,-1392510048,-1,0,
18:10:43.428: 0,0:0:0:3445,1,-68,-826,134,-70,-5530,1610,-1063251074,0,1,1002,-10,179,1845,99806,0,0,65344,8194,-1392510048,-1,0,
18:10:43.537: 32,0:0:0:3445,1,-68,-826,85,840,-210,280,-1063248005,0,1,985,-40,245,1845,99829,0,0,65344,8194,-1392510048,-1,0,
18:10:43.647: 0,0:0:0:3445,1,-19,-924,36,1680,-2450,700,-1063241590,0,1,988,-11,232,1845,99817,0,0,65344,8194,-1392510048,-1,0,
18:10:43.857: 32,0:0:0:3445,1,-19,-875,85,3010,-4690,-15470,-1063244379,0,1,1002,0,262,1843,99802,0,0,65344,8194,-1392510048,-1,0,
18:10:43.968: 0,0:0:0:3445,1,-19,-826,85,-490,-3360,1120,-1063249929,0,1,994,-30,221,1843,99802,0,0,65344,8194,-1392510048,-1,0,
18:10:44.078: 0,0:0:0:3445,1,29,-875,85,1260,-3360,2450,-1063250208,0,1,984,-16,206,1843,99813,0,0,65344,8194,-1392510048,-1,0,
18:10:44.289: 8,0:0:0:3445,1,-68,-826,134,840,-6020,1610,-1063247143,0,1,982,-19,234,1843,99825,0,0,65344,8194,-1392510048,-1,0,
18:10:44.395: 32,0:0:0:3445,1,-19,-924,134,3010,-4200,700,-1063243521,0,1,999,-33,225,1843,99825,0,0,65344,8194,-1392510048,-1,0,
18:10:44.502: 0,0:0:0:3445,1,-68,-826,85,3920,-1540,-1960,-1063243521,0,1,990,-34,218,1843,99813,0,0,65344,8194,-1392510048,-1,0,
18:10:44.716: 0,0:0:0:3445,1,-19,-875,85,2590,-9520,-14140,-1063246864,0,1,983,3,272,1845,99806,0,0,65344,8194,-1392510048,-1,0,
18:10:44.826: 0,0:0:0:3445,1,-19,-875,134,2100,-1120,1120,-1063247726,0,1,984,-95,172,1845,99817,0,0,65344,8194,-1392510048,-1,0,
18:10:44.934: 0,0:0:0:3445,1,-19,-972,182,2590,-2870,1120,-1063244937,0,1,982,61,224,1845,99806,0,0,65344,8194,-1392510048,-1,0,
18:10:45.046: 32,0:0:0:3445,1,-117,-924,182,2590,-2870,3780,-1063247726,0,1,983,-49,284,1845,99817,0,0,65344,8194,-1392510048,-1,0,
18:10:45.258: 32,0:0:0:3445,1,-19,-875,85,2100,-2870,-630,-1063244937,0,1,983,-54,235,1845,99817,0,0,65344,8194,-1392510048,-1,0,
18:10:45.368: 8,0:0:0:3445,1,-19,-972,85,350,-4200,280,-1063244658,0,1,965,36,221,1845,99817,0,0,65344,8194,-1392510048,-1,0,
18:10:45.478: 0,0:0:0:3445,1,-117,-875,36,3010,-6020,2030,-1063244658,0,1,983,-5,133,1843,99813,0,0,65344,8194,-1392510048,-1,0,
18:10:45.693: 0,0:0:0:3445,1,-117,-875,182,3430,-3360,-1050,-1063246864,0,1,999,-42,257,1843,99802,0,0,65344,8194,-1392510048,-1,0,
18:10:45.802: 0,0:0:0:3445,1,-19,-924,134,-12250,-210,2030,-1063249929,0,1,1015,13,201,1843,99802,0,0,65344,8194,-1392510048,-1,0,
18:10:45.912: 0,0:0:0:3445,1,-117,-875,85,2100,-5530,2030,-1063250208,0,1,987,-5,221,1843,99802,0,0,65344,8194,-1392510048,-1,0,
18:10:46.128: 32,0:0:0:3445,1,29,-875,182,5180,-6020,-1050,-1063250208,0,1,962,23,280,1843,99813,0,0,65344,8194,-1392510048,-1,0,
18:10:46.237: 8,0:0:0:3445,1,-68,-826,85,2100,210,-15890,-1063247143,0,1,971,14,204,1843,99825,0,0,65344,8194,-1392510048,-1,0,
18:10:46.345: 32,0:0:0:3445,1,29,-875,85,2590,-2030,-2380,-1063243521,0,1,991,23,147,1843,99825,0,0,65344,8194,-1392510048,-1,0,
18:10:46.557: 0,0:0:0:3445,1,-68,-924,134,4760,-4200,700,-1063243521,0,1,992,-27,283,1845,99795,0,0,65344,8194,-1392510048,-1,0,
18:10:46.666: 0,0:0:0:3445,1,29,-972,134,3430,-9100,16870,-1063250795,0,1,998,-85,184,1843,99790,0,0,65344,8194,-1392510048,-1,0,
18:10:46.777: 0,0:0:0:3445,1,-68,-875,85,2100,-210,-1470,-1063253552,0,1,998,-43,296,1843,99825,0,0,65344,8194,-1392510048,-1,0,
18:10:46.887: 32,0:0:0:3445,1,-19,-875,85,4760,-8190,-140,-1063243799,0,1,997,-55,304,1843,99825,0,0,65344,8194,-1392510048,-1,0,
18:10:47.098: 0,0:0:0:3445,1,-68,-924,134,3430,-2450,700,-1063243521,0,1,991,-39,154,1843,99813,0,0,65344,8194,-1392510048,-1,0,
18:10:47.208: 8,0:0:0:3445,1,-117,-875,85,5670,-700,2030,-1063246864,0,1,984,20,257,1842,99820,0,0,65344,8194,-1392510048,-1,0,
18:10:47.314: 0,0:0:0:3445,1,-68,-875,134,5180,-4690,3360,-1063245460,0,1,995,-33,211,1842,99809,0,0,65344,8194,-1392510048,-1,0,
18:10:47.528: 0,0:0:0:3445,1,29,-924,134,1680,-2870,700,-1063249068,0,1,982,-13,294,1842,99820,0,0,65344,8194,-1392510048,-1,0,
18:10:47.638: 32,0:0:0:3445,1,-68,-924,85,3850,-6020,1120,-1063246006,0,1,983,11,256,1842,99820,0,0,65344,8194,-1392510048,-1,0,
18:10:47.747: 0,0:0:0:3445,1,-117,-924,134,4340,-6020,5530,-1063246006,0,1,987,-49,211,1842,99820,0,0,65344,8194,-1392510048,-1,0,
18:10:47.963: 32,0:0:0:3445,1,29,-875,85,1680,-1540,-630,-1063246006,0,1,985,-13,230,1842,99809,0,0,65344,8194,-1392510048,-1,0,
18:10:48.070: 32,0:0:0:3445,1,-68,-875,134,2100,-7770,-1050,-1063249068,0,1,993,21,200,1842,99820,0,0,65344,8194,-1392510048,-1,0,
18:10:48.179: 8,0:0:0:3445,1,-19,-875,134,2100,-2870,-1050,-1063246006,0,1,988,-19,189,1843,99825,0,0,65344,8194,-1392510048,-1,0,
18:10:48.404: 0,0:0:0:3445,1,-68,-875,36,350,-2450,280,-1063244068,0,1,980,-20,270,1843,99813,0,0,65344,8194,-1392510048,-1,0,
18:10:48.512: 32,0:0:0:3445,1,-19,-875,85,4760,-6020,1610,-1063247409,0,1,978,-36,242,1843,99813,0,0,65344,8194,-1392510048,-1,0,
18:10:48.620: 8,0:0:0:3445,1,29,-924,134,2100,-2870,2450,-1063247409,0,1,982,-20,217,1845,99817,0,0,65344,8194,-1392510048,-1,0,
18:10:48.731: 0,0:0:0:3445,1,-19,-875,85,3430,-6860,-210,-1063245204,0,1,984,-18,203,1845,99817,0,0,65344,8194,-1392510048,-1,0,
18:10:48.946: 8,0:0:0:3445,1,29,-777,85,3010,-3360,-630,-1063244658,0,1,994,-69,258,1845,99817,0,0,65344,8194,-1392510048,-1,0,
18:10:49.057: 0,0:0:0:3445,1,-19,-924,231,2100,-4690,-1540,-1063244658,0,1,996,-14,228,1846,99810,0,0,65344,8194,-1392510048,-1,0,
18:10:49.168: 0,0:0:0:3445,1,-68,-924,85,1680,210,2450,-1063246066,0,1,1000,-22,224,1846,99822,0,0,65344,8194,-1392510048,-1,0,
18:10:49.385: 32,0:0:0:3445,1,-19,-826,134,840,-1540,1120,-1063242717,0,1,992,-74,260,1846,99822,0,0,65344,8194,-1392510048,-1,0,
18:10:49.495: 0,0:0:0:3445,1,-117,-875,85,3010,-8610,16380,-1063242717,0,1,989,-11,293,1847,99815,0,0,65344,8194,-1392510048,-1,0,
18:10:49.602: 0,0:0:0:3445,1,-68,-875,134,840,-7280,1610,-1063244125,0,1,979,-1,168,1848,99819,0,0,65344,8194,-1392510048,-1,0,
18:10:49.711: 32,0:0:0:3445,1,29,-924,36,4760,-2030,-1050,-1063242462,0,1,973,-38,258,1848,99819,0,0,65344,8194,-1392510048,-1,0,
18:10:49.927: 32,0:0:0:3445,1,-19,-972,36,1680,-2030,1120,-1063242462,0,1,973,-2,263,1848,99819,0,0,65344,8194,-1392510048,-1,0,
18:10:50.035: 8,0:0:0:3445,1,-19,-924,85,840,-6440,2030,-1063242462,0,1,972,-13,280,1848,99819,0,0,65344,8194,-1392510048,-1,0,
18:10:50.145: 32,0:0:0:3445,1,-68,-875,182,1260,-6440,2870,-1063242462,0,1,977,-2,220,1848,99823,0,0,65344,8194,-1392510048,-1,0,
18:10:50.357: 3,0:0:0:3445,1,-68,-875,134,16520,-5530,-3290,-1063241344,0,1,981,0,246,1848,99812,0,0,65344,8194,-1392510048,-1,0,
18:10:50.466: 8,0:0:0:3445,1,-68,-875,36,2590,-1540,1540,-1063244417,0,1,981,20,211,1848,99823,0,0,65344,8194,-1392510048,-1,0,
18:10:50.577: 0,0:0:0:3445,1,-19,-826,85,-12740,-5110,3780,-1063241344,0,1,986,-32,213,1848,99823,0,0,65344,8194,-1392510048,-1,0,
18:10:50.795: 32,0:0:0:3445,1,-68,-875,182,3010,-3360,-210,-1063241344,0,1,985,-23,240,1848,99812,0,0,65344,8194,-1392510048,-1,0,
18:10:50.906: 0,0:0:0:3445,1,-19,-777,134,1260,-8190,2450,-1063244417,0,1,974,1,204,1848,99812,0,0,65344,8194,-1392510048,-1,0,
18:10:51.018: 0,0:0:0:3445,1,-68,-924,134,840,-2870,-630,-1063244417,0,1,974,-35,209,1848,99823,0,0,65344,8194,-1392510048,-1,0,
18:10:51.128: 0,0:0:0:3445,1,29,-972,85,3430,-4690,-16310,-1063241344,0,1,978,-30,249,1848,99819,0,0,65344,8194,-1392510048,-1,0,
18:10:51.338: 32,0:0:0:3445,1,-19,-972,85,3010,-7350,-1050,-1063242462,0,1,981,-22,209,1848,99823,0,0,65344,8194,-1392510048,-1,0,
18:10:51.446: 8,0:0:0:3445,1,-19,-875,85,5180,-7350,-2800,-1063241344,0,1,978,-5,235,1848,99819,0,0,65344,8194,-1392510048,-1,0,
18:10:51.555: 0,0:0:0:3445,1,-19,-875,85,2590,-3780,-630,-1063242462,0,1,987,-28,245,1848,99819,0,0,65344,8194,-1392510048,-1,0,
18:10:51.769: 0,0:0:0:3445,1,-117,-875,182,840,-3360,1610,-1063242462,0,1,990,-34,227,1848,99819,0,0,65344,8194,-1392510048,-1,0,
18:10:51.877: 32,0:0:0:3445,1,-68,-972,36,-490,-5110,-4130,-1063242462,0,1,986,-3,221,1847,99815,0,0,65344,8194,-1392510048,-1,0,
18:10:51.987: 0,0:0:0:3445,1,-68,-826,134,-70,-4690,1190,-1063244125,0,1,974,2,231,1847,99815,0,0,65344,8194,-1392510048,-1,0,
18:10:52.203: 32,0:0:0:3445,1,-19,-826,85,4760,-7770,-3710,-1063244125,0,1,965,-33,187,1847,99826,0,0,65344,8194,-1392510048,-1,0,
18:10:52.314: 8,0:0:0:3445,1,-68,-875,134,2590,-2450,2520,-1063241054,0,1,977,11,232,1846,99810,0,0,65344,8194,-1392510048,-1,0,
18:10:52.422: 32,0:0:0:3445,1,-19,-924,182,17430,-8190,1190,-1063246066,0,1,988,-66,179,1845,99829,0,0,65344,8194,-1392510048,-1,0,
18:10:52.632: 0,0:0:0:3445,1,29,-875,134,3430,-4200,-3220,-1063241311,0,1,985,-6,217,1845,99817,0,0,65344,8194,-1392510048,-1,0,
18:10:52.738: 8,0:0:0:3445,1,-68,-924,134,2590,-6860,3850,-1063244379,0,1,975,-30,221,1843,99813,0,0,65344,8194,-1392510048,-1,0,
18:10:52.849: 0,0:0:0:3445,1,-19,-875,134,-1400,-17710,-980,-1063246864,0,1,984,-43,141,1842,99820,0,0,65344,8194,-1392510048,-1,0,
18:10:53.062: 32,0:0:0:3445,1,-68,-875,134,840,-4690,-140,-1063245460,0,1,985,-19,293,1842,99809,0,0,65344,8194,-1392510048,-1,0,
18:10:53.172: 0,0:0:0:3445,1,-19,-875,134,2590,-9100,2030,-1063249068,0,1,986,-18,216,1842,99820,0,0,65344,8194,-1392510048,-1,0,
18:10:53.283: 8,0:0:0:3445,1,-19,-875,36,3010,-2450,3850,-1063246006,0,1,996,-23,201,1842,99809,0,0,65344,8194,-1392510048,-1,0,
18:10:53.395: 8,0:0:0:3445,1,-117,-875,134,-13160,-2870,2030,-1063249068,0,1,976,14,240,1842,99820,0,0,65344,8194,-1392510048,-1,0,
18:10:53.611: 8,0:0:0:3445,1,-19,-826,182,840,-1120,2520,-1063246006,0,1,965,-25,193,1841,99816,0,0,65344,8194,-1392510048,-1,0,
18:10:53.719: 0,0:0:0:3445,1,-19,-924,182,-490,-1120,-1050,-1063247665,0,1,982,-10,215,1842,99809,0,0,65344,8194,-1392510048,-1,0,
18:10:53.830: 0,0:0:0:3445,1,-68,-924,182,3430,-2030,2520,-1063249068,0,1,991,-10,223,1843,99825,0,0,65344,8194,-1392510048,-1,0,
18:10:54.043: 8,0:0:0:3445,1,-19,-924,134,2170,-5110,-17640,-1063244068,0,1,993,-27,195,1843,99813,0,0,65344,8194,-1392510048,-1,0,
18:10:54.154: 8,0:0:0:3445,1,-68,-875,85,2170,-210,1610,-1063247409,0,1,984,14,195,1843,99813,0,0,65344,8194,-1392510048,-1,0,
18:10:54.264: 0,0:0:0:3445,1,-19,-875,134,840,-5110,-140,-1063247409,0,1,970,-23,202,1843,99825,0,0,65344,8194,-1392510048,-1,0,
18:10:54.479: 0,0:0:0:3445,1,-117,-924,134,5670,-4200,-2380,-1063244068,0,1,992,-1,177,1843,99825,0,0,65344,8194,-1392510048,-1,0,
18:10:54.589: 8,0:0:0:3445,1,-68,-924,182,3920,1120,700,-1063244068,0,1,995,-15,269,1845,99829,0,0,65344,8194,-1392510048,-1,0,
18:10:54.698: 32,0:0:0:3445,1,-68,-826,134,3430,-4200,3360,-1063241859,0,1,993,-30,263,1845,99829,0,0,65344,8194,-1392510048,-1,0,
18:10:54.911: 0,0:0:0:3445,1,-19,-826,182,3430,-4200,-1050,-1063241032,0,1,972,-19,220,1845,99817,0,0,65344,8194,-1392510048,-1,0,
18:10:55.021: 32,0:0:0:3445,1,-19,-924,36,-70,-6020,1120,-1063244379,0,1,955,-8,223,1845,99817,0,0,65344,8194,-1392510048,-1,0,
18:10:55.128: 0,0:0:0:3445,1,-19,-826,134,5180,-3780,280,-1063244658,0,1,970,-21,182,1846,99822,0,0,65344,8194,-1392510048,-1,0,
18:10:55.238: 8,0:0:0:3445,1,-68,-972,134,4340,-700,-1050,-1063242717,0,1,984,-6,260,1845,99829,0,0,65344,8194,-1392510048,-1,0,
18:10:55.456: 8,0:0:0:3445,1,-68,-924,85,3010,-5530,2030,-1063241311,0,1,1000,-7,270,1846,99833,0,0,65344,8194,-1392510048,-1,0,
18:10:55.567: 32,0:0:0:3445,1,-68,-924,182,2100,-6020,280,-1063239368,0,1,997,-61,237,1846,99822,0,0,65344,8194,-1392510048,-1,0,
18:10:55.678: 8,0:0:0:3445,1,-19,-826,182,350,-6020,-4620,-1063242438,0,1,996,7,209,1846,99810,0,0,65344,8194,-1392510048,-1,0,
18:10:55.895: 0,0:0:0:3445,1,-19,-826,182,3010,-4200,5110,-1063246066,0,1,1014,6,152,1847,99815,0,0,65344,8194,-1392510048,-1,0,
18:10:56.005: 0,0:0:0:3445,1,78,-924,85,3010,-700,280,-1063244125,0,1,1016,10,212,1847,99815,0,0,65344,8194,-1392510048,-1,0,
18:10:56.115: 32,0:0:0:3445,1,-19,-777,134,2100,-2030,-2870,-1063244125,0,1,974,-38,272,1847,99815,0,0,65344,8194,-1392510048,-1,0,
18:10:56.223: 0,0:0:0:3445,1,-68,-777,231,3430,-7280,700,-1063244125,0,1,977,38,211,1848,99830,0,0,65344,8194,-1392510048,-1,0,
18:10:56.437: 32,0:0:0:3445,1,-19,-875,231,2100,-3360,-6370,-1063239389,0,1,987,-36,229,1848,99819,0,0,65344,8194,-1392510048,-1,0,
18:10:56.545: 0,0:0:0:3445,1,-68,-875,134,5180,630,4690,-1063242182,0,1,978,34,214,1848,99830,0,0,65344,8194,-1392510048,-1,0,
18:10:56.655: 0,0:0:0:3445,1,-68,-924,85,3010,-5530,2870,-1063239389,0,1,989,-56,246,1848,99819,0,0,65344,8194,-1392510048,-1,0,
18:10:56.871: 32,0:0:0:3445,1,-19,-875,182,840,-4200,3780,-1063242182,0,1,996,-20,250,1848,99823,0,0,65344,8194,-1392510048,-1,0,
18:10:56.980: 0,0:0:0:3445,1,29,-875,36,840,-1540,3780,-1063241344,0,1,984,7,240,1848,99823,0,0,65344,8194,-1392510048,-1,0,
18:10:57.090: 32,0:0:0:3445,1,-68,-875,134,840,-3780,-630,-1063241344,0,1,974,-13,259,1849,99827,0,0,65344,8194,-1392510048,-1,0,
18:10:57.198: 0,0:0:0:3445,1,-19,-924,85,4340,-6860,210,-1063239680,0,1,973,-24,223,1849,99816,0,0,65344,8194,-1392510048,-1,0,
18:10:57.408: 32,0:0:0:3445,1,-68,-875,36,17850,-5530,-1540,-1063242475,0,1,980,-6,238,1849,99816,0,0,65344,8194,-1392510048,-1,0,
18:10:57.518: 32,0:0:0:3445,1,-68,-924,134,4760,-5110,-210,-1063242754,0,1,988,8,172,1850,99820,0,0,65344,8194,-1392510048,-1,0,
18:10:57.628: 0,0:0:0:3445,1,-19,-924,134,-70,-5950,1120,-1063241090,0,1,982,-33,261,1850,99820,0,0,65344,8194,-1392510048,-1,0,
18:10:57.845: 0,0:0:0:3445,1,29,-875,134,770,-5110,-630,-1063241090,0,1,973,-25,254,1850,99820,0,0,65344,8194,-1392510048,-1,0,
18:10:57.953: 0,0:0:0:3445,1,-68,-875,182,-70,-5110,4200,-1063241090,0,1,982,-13,200,1851,99802,0,0,65344,8194,-1392510048,-1,0,
18:10:58.063: 0,0:0:0:3445,1,78,-826,134,3010,-4200,1960,-1063245580,0,1,985,-31,271,1851,99825,0,0,65344,8194,-1392510048,-1,0,
18:10:58.279: 0,0:0:0:3445,1,-68,-875,85,3850,-6440,-1540,-1063239425,0,1,964,44,228,1852,99806,0,0,65344,8194,-1392510048,-1,0,
18:10:58.386: 8,0:0:0:3445,1,-68,-924,134,770,-5950,-17220,-1063243917,0,1,959,-36,125,1852,99817,0,0,65344,8194,-1392510048,-1,0,
18:10:58.497: 0,0:0:0:3445,1,29,-875,134,2590,-3360,1540,-1063241117,0,1,984,0,243,1853,99833,0,0,65344,8194,-1392510048,-1,0,
18:10:58.605: 32,0:0:0:3445,1,-68,-826,36,1260,-1120,1540,-1063235811,0,1,998,3,223,1853,99822,0,0,65344,8194,-1392510048,-1,0,
18:10:58.818: 8,0:0:0:3445,1,-166,-875,85,1680,-5110,3290,-1063238611,0,1,989,-20,301,1854,99826,0,0,65344,8194,-1392510048,-1,0,
18:10:58.927: 0,0:0:0:3445,1,29,-875,134,-490,-5110,-700,-1063237224,0,1,987,-58,258,1854,99814,0,0,65344,8194,-1392510048,-1,0,
18:10:59.035: 0,0:0:0:3445,1,-68,-826,134,770,-2030,2870,-1063240586,0,1,983,-13,296,1854,99814,0,0,65344,8194,-1392510048,-1,0,
18:10:59.250: 0,0:0:0:3445,1,-117,-875,85,1680,-5530,13720,-1063240586,0,1,997,-18,212,1854,99807,0,0,65344,8194,-1392510048,-1,0,
18:10:59.356: 32,0:0:0:3445,1,-117,-875,85,350,210,-17710,-1063242548,0,1,976,20,202,1854,99830,0,0,65344,8194,-1392510048,-1,0,
18:10:59.466: 0,0:0:0:3445,1,-19,-875,85,16520,-8190,-4620,-1063236103,0,1,984,-51,213,1854,99819,0,0,65344,8194,-1392510048,-1,0,
18:10:59.679: 8,0:0:0:3445,1,-19,-875,231,7420,-6860,-700,-1063238905,0,1,1002,19,243,1854,99819,0,0,65344,8194,-1392510048,-1,0,
18:10:59.787: 8,0:0:0:3445,1,-166,-875,85,1260,-3780,3290,-1063239185,0,1,989,30,220,1855,99812,0,0,65344,8194,-1392510048,-1,0,
18:10:59.895: 64,0:0:0:3445,1,-19,-826,134,350,-4690,630,-1063240602,0,1,965,-52,340,1855,99789,0,0,65344,8194,-1392510048,-1,0,
18:11:00.107: 32,0:0:0:3445,1,-68,-924,85,3430,-4690,-2870,-1063247051,0,1,975,61,278,1855,99766,0,0,65344,8194,-1392510048,-1,0,
18:11:00.214: 8,0:0:0:3445,1,-117,-924,134,2590,-6440,-630,-1063253782,0,1,997,-18,219,1855,99800,0,0,65344,8194,-1392510048,-1,0,
18:11:00.323: 32,0:0:0:3445,1,-117,-875,85,-2240,-2450,-630,-1063244807,0,1,984,-60,269,1854,99796,0,0,65344,8194,-1392510048,-1,0,
18:11:00.538: 32,0:0:0:3445,1,-68,-875,85,4760,-9520,-1050,-1063245911,0,1,986,44,231,1854,99803,0,0,65344,8194,-1392510048,-1,0,
18:11:00.645: 0,0:0:0:3445,1,-117,-924,182,1680,1120,3780,-1063243949,0,1,986,14,211,1854,99807,0,0,65344,8194,-1392510048,-1,0,
18:11:00.755: 0,0:0:0:3445,1,-19,-924,85,2590,-5110,-1120,-1063242828,0,1,986,-40,258,1854,99819,0,0,65344,8194,-1392510048,-1,0,
18:11:00.971: 0,0:0:0:3445,1,-19,-924,134,3010,-8610,-1540,-1063239465,0,1,991,17,222,1854,99803,0,0,65344,8194,-1392510048,-1,0,
18:11:01.077: 64,0:0:0:3445,1,-117,-924,85,1260,-6860,700,-1063243669,0,1,994,-31,236,1854,99826,0,0,65344,8194,-1392510048,-1,0,
18:11:01.186: 8,0:0:0:3445,1,-117,-924,134,350,-2030,-2380,-1063237504,0,1,966,-66,260,1853,99810,0,0,65344,8194,-1392510048,-1,0,
18:11:01.398: 0,0:0:0:3445,1,-19,-924,85,1680,-3780,4200,-1063242252,0,1,961,-30,226,1854,99814,0,0,65344,8194,-1392510048,-1,0,
18:11:01.505: 0,0:0:0:3445,1,-19,-924,36,3850,-4200,-630,-1063240586,0,1,976,-12,208,1853,99810,0,0,65344,8194,-1392510048,-1,0,
18:11:01.615: 8,0:0:0:3445,1,-117,-875,134,1260,-6440,700,-1063242252,0,1,962,-2,225,1853,99822,0,0,65344,8194,-1392510048,-1,0,
18:11:01.726: 0,0:0:0:3445,1,-117,-875,134,3430,-5110,3360,-1063238891,0,1,965,-49,204,1853,99810,0,0,65344,8194,-1392510048,-1,0,
18:11:01.937: 0,0:0:0:3445,1,-68,-924,36,3920,-13930,16870,-1063242252,0,1,981,-26,238,1852,99794,0,0,65344,8194,-1392510048,-1,0,
18:11:02.045: 0,0:0:0:3445,1,-166,-924,85,4760,-7770,-630,-1063247276,0,1,998,-11,94,1852,99806,0,0,65344,8194,-1392510048,-1,0,
18:11:02.152: 0,0:0:0:3445,1,-68,-875,85,3850,2450,-630,-1063244197,0,1,973,-42,272,1851,99802,0,0,65344,8194,-1392510048,-1,0,
18:11:02.366: 32,0:0:0:3445,1,-68,-924,182,1680,-4690,-1960,-1063245860,0,1,976,-19,169,1851,99802,0,0,65344,8194,-1392510048,-1,0,
18:11:02.477: 32,0:0:0:3445,1,-68,-875,182,3430,-3780,-16800,-1063245860,0,1,987,-7,207,1851,99813,0,0,65344,8194,-1392510048,-1,0,
18:11:02.586: 0,0:0:0:3445,1,29,-924,182,350,-6860,210,-1063242782,0,1,994,-20,212,1850,99809,0,0,65344,8194,-1392510048,-1,0,
18:11:02.801: 0,0:0:0:3445,1,-68,-875,182,3850,-6020,3780,-1063244166,0,1,989,-17,211,1851,99813,0,0,65344,8194,-1392510048,-1,0,
18:11:02.911: 0,0:0:0:3445,1,-19,-875,134,1260,-6020,17710,-1063242502,0,1,982,-46,264,1851,99813,0,0,65344,8194,-1392510048,-1,0,
18:11:03.020: 0,0:0:0:3445,1,-19,-826,182,2590,-2030,700,-1063242502,0,1,975,-12,207,1850,99809,0,0,65344,8194,-1392510048,-1,0,
18:11:03.232: 8,0:0:0:3445,1,-68,-875,85,6930,-4690,4200,-1063244166,0,1,959,-14,259,1850,99809,0,0,65344,8194,-1392510048,-1,0,
18:11:03.342: 32,0:0:0:3445,1,-68,-875,134,-980,-2870,-630,-1063244166,0,1,971,-29,207,1850,99820,0,0,65344,8194,-1392510048,-1,0,
18:11:03.453: 0,0:0:0:3445,1,-68,-826,134,-13160,-5530,2870,-1063241090,0,1,983,9,262,1850,99820,0,0,65344,8194,-1392510048,-1,0,
18:11:03.666: 0,0:0:0:3445,1,-19,-875,231,350,-3780,1540,-1063241090,0,1,997,-6,202,1850,99820,0,0,65344,8194,-1392510048,-1,0,
18:11:03.778: 0,0:0:0:3445,1,-117,-924,85,-1400,-2030,3290,-1063241090,0,1,988,-63,258,1850,99820,0,0,65344,8194,-1392510048,-1,0,
18:11:03.888: 0,0:0:0:3445,1,29,-875,36,4340,-6860,-1960,-1063241090,0,1,973,-15,233,1850,99809,0,0,65344,8194,-1392510048,-1,0,
18:11:03.998: 8,0:0:0:3445,1,-68,-875,134,-490,-5950,2870,-1063244166,0,1,984,9,206,1850,99820,0,0,65344,8194,-1392510048,-1,0,
18:11:04.213: 0,0:0:0:3445,1,-19,-875,134,-70,-2870,210,-1063241090,0,1,987,-7,125,1850,99832,0,0,65344,8194,-1392510048,-1,0,
18:11:04.323: 8,0:0:0:3445,1,-117,-875,134,3430,-6860,-1120,-1063237734,0,1,990,-44,261,1851,99813,0,0,65344,8194,-1392510048,-1,0,
18:11:04.434: 8,0:0:0:3445,1,-68,-875,134,2590,-5110,-210,-1063242222,0,1,974,-19,253,1851,99825,0,0,65344,8194,-1392510048,-1,0,
18:11:04.650: 8,0:0:0:3445,1,-68,-924,134,5600,-3360,700,-1063239145,0,1,977,1,182,1851,99813,0,0,65344,8194,-1392510048,-1,0,
18:11:04.761: 0,0:0:0:3445,1,-68,-875,134,1680,-5530,-210,-1063242502,0,1,990,11,260,1851,99813,0,0,65344,8194,-1392510048,-1,0,
18:11:04.871: 32,0:0:0:3445,1,-68,-875,85,1680,-1540,3290,-1063242502,0,1,990,-49,246,1852,99817,0,0,65344,8194,-1392510048,-1,0,
18:11:04.981: 0,0:0:0:3445,1,29,-875,85,4760,-5110,630,-1063240837,0,1,976,-20,253,1852,99817,0,0,65344,8194,-1392510048,-1,0,
18:11:05.190: 8,0:0:0:3445,1,-68,-826,182,3430,-5110,1540,-1063240837,0,1,981,-8,229,1853,99810,0,0,65344,8194,-1392510048,-1,0,
18:11:05.296: 0,0:0:0:3445,1,-68,-875,36,4340,-2030,1540,-1063242252,0,1,1000,-20,203,1853,99810,0,0,65344,8194,-1392510048,-1,0,
18:11:05.405: 8,0:0:0:3445,1,-68,-924,134,3010,-6860,-630,-1063242252,0,1,988,-19,244,1853,99810,0,0,65344,8194,-1392510048,-1,0,
18:11:05.622: 32,0:0:0:3445,1,-68,-924,134,3850,-5530,630,-1063242252,0,1,966,-20,187,1854,99826,0,0,65344,8194,-1392510048,-1,0,
18:11:05.732: 32,0:0:0:3445,1,-19,-924,36,4340,-4200,210,-1063237224,0,1,965,-32,265,1854,99814,0,0,65344,8194,-1392510048,-1,0,
18:11:05.843: 0,0:0:0:3445,1,-68,-972,231,5180,-9940,-210,-1063240586,0,1,979,3,175,1854,99814,0,0,65344,8194,-1392510048,-1,0,
18:11:06.059: 8,0:0:0:3445,1,29,-826,231,3010,-4690,1960,-1063240586,0,1,991,-40,256,1854,99814,0,0,65344,8194,-1392510048,-1,0,
18:11:06.167: 32,0:0:0:3445,1,-68,-826,85,3010,-1120,3290,-1063240586,0,1,998,-5,246,1854,99830,0,0,65344,8194,-1392510048,-1,0,
18:11:06.278: 0,0:0:0:3445,1,-68,-924,134,1260,-7770,-1960,-1063236103,0,1,1000,21,187,1854,99819,0,0,65344,8194,-1392510048,-1,0,
18:11:06.487: 8,0:0:0:3445,1,-68,-826,85,3850,-3780,2870,-1063238905,0,1,992,4,206,1854,99814,0,0,65344,8194,-1392510048,-1,0,
18:11:06.597: 0,0:0:0:3445,1,-19,-875,85,2100,-3360,210,-1063240586,0,1,982,-30,244,1854,99830,0,0,65344,8194,-1392510048,-1,0,
18:11:06.706: 0,0:0:0:3445,1,-117,-777,182,840,-7770,-630,-1063236103,0,1,976,36,192,1854,99814,0,0,65344,8194,-1392510048,-1,0,
18:11:06.816: 8,0:0:0:3445,1,-19,-875,134,3010,-2450,-210,-1063240306,0,1,984,-24,201,1854,99814,0,0,65344,8194,-1392510048,-1,0,
18:11:07.028: 8,0:0:0:3445,1,-19,-972,36,17850,-6020,-1540,-1063240586,0,1,987,-17,215,1853,99799,0,0,65344,8194,-1392510048,-1,0,
18:11:07.136: 8,0:0:0:3445,1,-117,-826,134,3430,-3780,280,-1063245333,0,1,973,34,284,1853,99810,0,0,65344,8194,-1392510048,-1,0,
18:11:07.244: 0,0:0:0:3445,1,-68,-875,85,1680,-2450,2030,-1063242532,0,1,979,-28,93,1852,99817,0,0,65344,8194,-1392510048,-1,0,
18:11:07.457: 32,0:0:0:3445,1,78,-924,-12,1260,2450,6020,-1063240837,0,1,990,-43,329,1851,99825,0,0,65344,8194,-1392510048,-1,0,
18:11:07.564: 8,0:0:0:3445,1,-117,-875,231,3010,-7350,-1050,-1063239145,0,1,1008,48,123,1851,99813,0,0,65344,8194,-1392510048,-1,0,
18:11:07.672: 0,0:0:0:3445,1,-68,-826,85,840,630,2450,-1063242502,0,1,985,-62,250,1850,99820,0,0,65344,8194,-1392510048,-1,0,
18:11:07.886: 0,0:0:0:3445,1,-117,-924,134,3920,-10430,-2800,-1063241090,0,1,966,0,249,1849,99827,0,0,65344,8194,-1392510048,-1,0,
18:11:07.997: 0,0:0:0:3445,1,-117,-875,85,1260,-4690,4690,-1063239680,0,1,973,56,210,1849,99816,0,0,65344,8194,-1392510048,-1,0,
18:11:08.107: 0,0:0:0:3445,1,-68,-972,182,1680,-1540,-1050,-1063242475,0,1,971,-69,209,1848,99812,0,0,65344,8194,-1392510048,-1,0,
18:11:08.323: 8,0:0:0:3445,1,-68,-826,85,3010,-1540,-140,-1063244417,0,1,976,44,243,1848,99812,0,0,65344,8194,-1392510048,-1,0,
18:11:08.430: 32,0:0:0:3445,1,-19,-924,134,-17570,-7350,3780,-1063244417,0,1,990,4,182,1848,99823,0,0,65344,8194,-1392510048,-1,0,
18:11:08.537: 0,0:0:0:3445,1,-19,-924,231,1680,-2870,-1470,-1063241344,0,1,999,-34,224,1848,99812,0,0,65344,8194,-1392510048,-1,0,
18:11:08.754: 0,0:0:0:3445,1,-166,-875,85,840,-5110,-1540,-1063244417,0,1,990,21,202,1848,99812,0,0,65344,8194,-1392510048,-1,0,
18:11:08.865: 8,0:0:0:3445,1,-68,-826,182,-70,-2870,3780,-1063244417,0,1,983,-47,197,1848,99823,0,0,65344,8194,-1392510048,-1,0,
18:11:08.976: 0,0:0:0:3445,1,-19,-875,36,4340,-3360,-2380,-1063241344,0,1,995,-21,213,1849,99827,0,0,65344,8194,-1392510048,-1,0,
18:11:09.087: 8,0:0:0:3445,1,-68,-924,134,4340,-7770,1120,-1063239680,0,1,987,54,223,1849,99827,0,0,65344,8194,-1392510048,-1,0,
18:11:09.298: 8,0:0:0:3445,1,-68,-875,134,840,-3360,1120,-1063239400,0,1,981,-27,190,1850,99809,0,0,65344,8194,-1392510048,-1,0,
18:11:09.406: 32,0:0:0:3445,1,29,-875,134,2590,-5530,-1540,-1063243886,0,1,972,-29,240,1850,99820,0,0,65344,8194,-1392510048,-1,0,
18:11:09.518: 8,0:0:0:3445,1,-117,-875,134,3010,-6440,2030,-1063241090,0,1,985,-7,212,1850,99809,0,0,65344,8194,-1392510048,-1,0,
18:11:09.734: 0,0:0:0:3445,1,29,-924,85,1260,-210,1540,-1063244166,0,1,999,-34,223,1851,99825,0,0,65344,8194,-1392510048,-1,0,
18:11:09.845: 0,0:0:0:3445,1,-68,-826,85,1680,-8190,16800,-1063239145,0,1,986,43,198,1851,99825,0,0,65344,8194,-1392510048,-1,0,
18:11:09.957: 0,0:0:0:3445,1,-117,-826,182,5180,-3360,17290,-1063239145,0,1,976,-35,245,1851,99825,0,0,65344,8194,-1392510048,-1,0,
18:11:10.064: 0,0:0:0:3445,1,29,-924,36,2100,-6860,-1120,-1063239145,0,1,983,-36,218,1851,99813,0,0,65344,8194,-1392510048,-1,0,
18:11:10.278: 0,0:0:0:3445,1,-68,-924,134,2590,-2870,1540,-1063242502,0,1,991,41,168,1852,99817,0,0,65344,8194,-1392510048,-1,0,
18:11:10.386: 0,0:0:0:3445,1,-68,-875,182,-13160,-2450,700,-1063240837,0,1,980,-41,230,1851,99825,0,0,65344,8194,-1392510048,-1,0,
18:11:10.497: 0,0:0:0:3445,1,29,-826,182,1260,-6440,-2870,-1063239145,0,1,977,-43,277,1852,99817,0,0,65344,8194,-1392510048,-1,0,
18:11:10.713: 0,0:0:0:3445,1,-117,-826,85,2100,-3780,3290,-1063240837,0,1,989,-32,212,1852,99817,0,0,65344,8194,-1392510048,-1,0,
18:11:10.823: 0,0:0:0:3445,1,-19,-875,134,4340,-3360,2030,-1063240837,0,1,1011,2,243,1852,99817,0,0,65344,8194,-1392510048,-1,0,
18:11:10.933: 8,0:0:0:3445,1,-166,-875,134,-15330,-6440,1540,-1063240837,0,1,1003,-45,248,1853,99822,0,0,65344,8194,-1392510048,-1,0,
18:11:11.148: 0,0:0:0:3445,1,-19,-777,85,4760,-3360,-210,-1063238891,0,1,989,-6,231,1853,99822,0,0,65344,8194,-1392510048,-1,0,
18:11:11.257: 32,0:0:0:3445,1,-19,-875,-12,3850,-5530,14210,-1063238891,0,1,983,-42,239,1853,99810,0,0,65344,8194,-1392510048,-1,0,
18:11:11.364: 32,0:0:0:3445,1,-68,-875,85,3850,-7280,-1540,-1063242252,0,1,986,-8,235,1853,99833,0,0,65344,8194,-1392510048,-1,0,
18:11:11.579: 0,0:0:0:3445,1,-117,-924,134,17430,-7280,210,-1063235811,0,1,984,-33,244,1853,99833,0,0,65344,8194,-1392510048,-1,0,
18:11:11.690: 0,0:0:0:3445,1,-19,-875,85,1680,-6020,-630,-1063235530,0,1,972,-9,241,1854,99826,0,0,65344,8194,-1392510048,-1,0,
18:11:11.799: 0,0:0:0:3445,1,-68,-826,85,4760,-3360,2450,-1063236944,0,1,977,-26,238,1854,99826,0,0,65344,8194,-1392510048,-1,0,
18:11:11.909: 0,0:0:0:3445,1,-19,-826,85,-490,-5530,2870,-1063236944,0,1,991,-9,201,1853,99799,0,0,65344,8194,-1392510048,-1,0,
18:11:12.122: 32,0:0:0:3445,1,-68,-826,85,2100,-6440,2030,-1063245053,0,1,985,-5,233,1853,99810,0,0,65344,8194,-1392510048,-1,0,
18:11:12.230: 0,0:0:0:3445,1,-19,-875,134,2590,-3780,-1120,-1063242532,0,1,992,0,171,1853,99810,0,0,65344,8194,-1392510048,-1,0,
18:11:12.341: 32,0:0:0:3445,1,-68,-777,134,1680,-3360,3290,-1063242252,0,1,992,-6,236,1854,99814,0,0,65344,8194,-1392510048,-1,0,
18:11:12.553: 32,0:0:0:3445,1,-19,-875,134,2590,-4200,4620,-1063240586,0,1,985,-11,201,1854,99826,0,0,65344,8194,-1392510048,-1,0,
18:11:12.664: 0,0:0:0:3445,1,-68,-875,134,840,-2030,-2870,-1063237224,0,1,976,-5,219,1854,99837,0,0,65344,8194,-1392510048,-1,0,
18:11:12.776: 0,0:0:0:3445,1,-19,-972,134,5180,-7280,1120,-1063234142,0,1,985,-14,178,1854,99814,0,0,65344,8194,-1392510048,-1,0,
18:11:12.991: 0,0:0:0:3445,1,-19,-924,231,2590,-5110,-1960,-1063240306,0,1,987,-10,211,1853,99810,0,0,65344,8194,-1392510048,-1,0,
18:11:13.102: 0,0:0:0:3445,1,-19,-924,134,2590,-3360,2030,-1063242252,0,1,991,-39,260,1853,99810,0,0,65344,8194,-1392510048,-1,0,
18:11:13.213: 0,0:0:0:3445,1,-19,-826,134,3850,-6020,1540,-1063242252,0,1,981,-13,246,1853,99822,0,0,65344,8194,-1392510048,-1,0,
18:11:13.424: 32,0:0:0:3445,1,-19,-875,36,1260,-4200,1540,-1063238891,0,1,979,-23,234,1853,99810,0,0,65344,8194,-1392510048,-1,0,
18:11:13.532: 32,0:0:0:3445,1,-19,-826,85,-490,-4200,-17710,-1063242252,0,1,984,-21,191,1852,99829,0,0,65344,8194,-1392510048,-1,0,
18:11:13.641: 8,0:0:0:3445,1,-68,-924,134,16520,-7770,1540,-1063237478,0,1,987,12,215,1853,99810,0,0,65344,8194,-1392510048,-1,0,
18:11:13.753: 8,0:0:0:3445,1,-19,-924,85,1260,-6860,1120,-1063241972,0,1,981,-27,225,1853,99822,0,0,65344,8194,-1392510048,-1,0,
18:11:13.970: 0,0:0:0:3445,1,-19,-924,85,350,-4200,1120,-1063238891,0,1,971,-16,254,1853,99822,0,0,65344,8194,-1392510048,-1,0,
18:11:14.079: 0,0:0:0:3445,1,-68,-875,85,3430,-3780,-1050,-1063238891,0,1,975,-11,255,1853,99822,0,0,65344,8194,-1392510048,-1,0,
18:11:14.190: 0,0:0:0:3445,1,-19,-826,134,1680,-3780,2450,-1063238891,0,1,983,-26,261,1852,99817,0,0,65344,8194,-1392510048,-1,0,
18:11:14.407: 32,0:0:0:3445,1,-68,-924,182,4760,-6020,700,-1063240837,0,1,991,-49,223,1852,99817,0,0,65344,8194,-1392510048,-1,0,
18:11:14.518: 0,0:0:0:3445,1,-68,-875,85,2100,-5530,-1120,-1063240837,0,1,995,-13,262,1852,99817,0,0,65344,8194,-1392510048,-1,0,
18:11:14.627: 0,0:0:0:3445,1,-19,-924,134,5180,-5530,-2380,-1063240837,0,1,994,-47,189,1852,99817,0,0,65344,8194,-1392510048,-1,0,
18:11:14.840: 0,0:0:0:3445,1,29,-875,182,1680,-3360,-1050,-1063240837,0,1,982,-36,300,1852,99817,0,0,65344,8194,-1392510048,-1,0,
18:11:14.950: 64,0:0:0:3445,1,-19,-924,85,840,-2870,1540,-1063240837,0,1,986,-29,192,1852,99806,0,0,65344,8194,-1392510048,-1,0,
18:11:15.061: 0,0:0:0:3445,1,-19,-875,85,350,-3360,-210,-1063243917,0,1,975,-41,260,1852,99817,0,0,65344,8194,-1392510048,-1,0,
18:11:15.168: 0,0:0:0:3445,1,-19,-875,134,3850,-5110,2030,-1063241117,0,1,983,0,194,1852,99829,0,0,65344,8194,-1392510048,-1,0,
18:11:15.385: 8,0:0:0:3445,1,-19,-875,182,3010,-6860,-210,-1063237478,0,1,984,-41,258,1852,99829,0,0,65344,8194,-1392510048,-1,0,
18:11:15.496: 0,0:0:0:3445,1,-68,-924,85,350,-8190,-1540,-1063237198,0,1,989,-6,216,1853,99810,0,0,65344,8194,-1392510048,-1,0,
18:11:15.606: 8,0:0:0:3445,1,-19,-826,134,2100,-2450,2450,-1063241972,0,1,992,11,209,1853,99810,0,0,65344,8194,-1392510048,-1,0,
18:11:15.825: 8,0:0:0:3445,1,29,-777,182,2100,-5110,3290,-1063242252,0,1,973,-50,247,1853,99822,0,0,65344,8194,-1392510048,-1,0,
18:11:15.937: 0,0:0:0:3445,1,-68,-875,182,2590,-8190,16380,-1063238891,0,1,979,11,274,1852,99817,0,0,65344,8194,-1392510048,-1,0,
18:11:16.047: 0,0:0:0:3445,1,-19,-826,134,2590,-5110,1960,-1063240837,0,1,979,-5,152,1853,99822,0,0,65344,8194,-1392510048,-1,0,
18:11:16.154: 0,0:0:0:3445,1,29,-875,85,-980,-1540,2870,-1063238891,0,1,987,-6,270,1853,99810,0,0,65344,8194,-1392510048,-1,0,
18:11:16.369: 8,0:0:0:3445,1,-117,-924,134,3010,-7280,-1960,-1063242252,0,1,983,7,188,1852,99806,0,0,65344,8194,-1392510048,-1,0,
18:11:16.480: 0,0:0:0:3445,1,29,-826,85,-70,-5530,-210,-1063243917,0,1,983,-28,275,1852,99806,0,0,65344,8194,-1392510048,-1,0,
18:11:16.591: 8,0:0:0:3445,1,-19,-972,134,2100,-4690,-1120,-1063244197,0,1,990,-12,226,1851,99825,0,0,65344,8194,-1392510048,-1,0,
18:11:16.807: 0,0:0:0:3445,1,-68,-875,-12,-70,-1540,1540,-1063239425,0,1,985,-15,223,1850,99809,0,0,65344,8194,-1392510048,-1,0,
18:11:16.915: 0,0:0:0:3445,1,-19,-875,134,2590,-4690,-1540,-1063244166,0,1,982,24,220,1850,99820,0,0,65344,8194,-1392510048,-1,0,
18:11:17.024: 0,0:0:0:3445,1,-68,-875,36,2100,-4690,700,-1063241090,0,1,980,-27,210,1850,99809,0,0,65344,8194,-1392510048,-1,0,
18:11:17.239: 0,0:0:0:3445,1,-19,-875,85,3850,-7280,-1960,-1063244166,0,1,985,-1,208,1850,99820,0,0,65344,8194,-1392510048,-1,0,
18:11:17.350: 0,0:0:0:3445,1,-68,-924,134,2590,-3360,1540,-1063241090,0,1,984,0,223,1850,99809,0,0,65344,8194,-1392510048,-1,0,
18:11:17.461: 8,0:0:0:3445,1,29,-924,182,1260,1120,1540,-1063244166,0,1,982,-26,215,1850,99820,0,0,65344,8194,-1392510048,-1,0,
18:11:17.570: 32,0:0:0:3445,1,29,-924,85,14350,-7280,-630,-1063241090,0,1,977,-23,355,1850,99809,0,0,65344,8194,-1392510048,-1,0,
18:11:17.780: 0,0:0:0:3445,1,-68,-875,85,2590,-4200,2870,-1063244166,0,1,985,7,40,1850,99809,0,0,65344,8194,-1392510048,-1,0,
18:11:17.892: 0,0:0:0:3445,1,-68,-972,134,1260,-2450,-1120,-1063244166,0,1,985,-46,347,1849,99816,0,0,65344,8194,-1392510048,-1,0,
18:11:18.003: 8,0:0:0:3445,1,-19,-924,182,4760,-6440,-210,-1063242754,0,1,992,-33,171,1849,99816,0,0,65344,8194,-1392510048,-1,0,
18:11:18.216: 0,0:0:0:3445,1,-68,-875,85,350,1120,5530,-1063242754,0,1,976,3,269,1849,99816,0,0,65344,8194,-1392510048,-1,0,
18:11:18.324: 8,0:0:0:3445,1,-68,-875,134,840,-9940,-5530,-1063242754,0,1,968,-31,319,1849,99827,0,0,65344,8194,-1392510048,-1,0,
18:11:18.435: 32,0:0:0:3445,1,-68,-972,85,3010,-4690,2030,-1063239680,0,1,984,-15,221,1849,99816,0,0,65344,8194,-1392510048,-1,0,
18:11:18.547: 0,0:0:0:3445,1,-68,-924,36,3850,-1540,700,-1063242475,0,1,990,7,250,1849,99827,0,0,65344,8194,-1392510048,-1,0,
18:11:18.759: 32,0:0:0:3445,1,-68,-875,85,1680,-9100,1540,-1063239680,0,1,992,-31,225,1849,99827,0,0,65344,8194,-1392510048,-1,0,
18:11:18.869: 0,0:0:0:3445,1,-117,-875,85,2100,-4690,-4200,-1063239400,0,1,982,0,147,1849,99816,0,0,65344,8194,-1392510048,-1,0,
18:11:18.977: 8,0:0:0:3445,1,-19,-924,36,4340,-1120,-210,-1063242475,0,1,970,-4,312,1849,99816,0,0,65344,8194,-1392510048,-1,0,
18:11:19.202: 32,0:0:0:3445,1,-19,-875,182,3430,-700,700,-1063242754,0,1,980,-10,157,1849,99816,0,0,65344,8194,-1392510048,-1,0,
18:11:19.308: 0,0:0:0:3445,1,-117,-875,36,2590,15890,700,-1063242754,0,1,978,-32,314,1849,99827,0,0,65344,8194,-1392510048,-1,0,
18:11:19.415: 0,0:0:0:3445,1,-19,-924,134,1260,-6440,700,-1063239680,0,1,996,-28,284,1849,99827,0,0,65344,8194,-1392510048,-1,0,
18:11:19.624: 8,0:0:0:3445,1,-19,-924,182,350,-3360,2870,-1063239400,0,1,1011,-43,158,1849,99827,0,0,65344,8194,-1392510048,-1,0,
18:11:19.732: 0,0:0:0:3445,1,-19,-875,85,2100,210,-1050,-1063239400,0,1,998,-64,200,1848,99812,0,0,65344,8194,-1392510048,-1,0,
18:11:19.840: 64,0:0:0:3445,1,-68,-826,134,840,-2450,1540,-1063244138,0,1,976,79,235,1848,99800,0,0,65344,8194,-1392510048,-1,0,
18:11:19.950: 0,0:0:0:3445,1,-19,-924,134,840,-2870,3780,-1063247770,0,1,960,-69,270,1848,99819,0,0,65344,8194,-1392510048,-1,0,
18:11:20.164: 32,0:0:0:3445,1,78,-875,134,3010,-2870,-630,-1063242741,0,1,957,-13,201,1848,99819,0,0,65344,8194,-1392510048,-1,0,
18:11:20.275: 32,0:0:0:3445,1,-117,-875,182,3850,-5530,-1960,-1063242462,0,1,956,-18,293,1847,99815,0,0,65344,8194,-1392510048,-1,0,
18:11:20.382: 0,0:0:0:3445,1,-19,-924,182,-13160,-6440,-2450,-1063244125,0,1,1007,-9,186,1848,99830,0,0,65344,8194,-1392510048,-1,0,
18:11:20.595: 32,0:0:0:3445,1,-19,-924,85,1680,-2450,-1960,-1063239389,0,1,1023,-8,210,1848,99830,0,0,65344,8194,-1392510048,-1,0,
18:11:20.704: 32,0:0:0:3445,1,29,-777,85,3430,-5530,2870,-1063239110,0,1,984,-6,275,1848,99819,0,0,65344,8194,-1392510048,-1,0,
18:11:20.813: 8,0:0:0:3445,1,-19,-875,134,3010,-3360,2030,-1063242182,0,1,982,13,112,1848,99819,0,0,65344,8194,-1392510048,-1,0,
18:11:21.031: 0,0:0:0:3445,1,-19,-777,85,3850,-4200,4620,-1063242462,0,1,948,-13,273,1848,99819,0,0,65344,8194,-1392510048,-1,0,
18:11:21.141: 8,0:0:0:3445,1,-19,-972,134,350,-4690,210,-1063242462,0,1,963,-36,260,1848,99807,0,0,65344,8194,-1392510048,-1,0,
18:11:21.252: 32,0:0:0:3445,1,-166,-924,85,2100,-10430,210,-1063245814,0,1,995,16,257,1848,99819,0,0,65344,8194,-1392510048,-1,0,
18:11:21.465: 32,0:0:0:3445,1,-117,-875,182,-70,-17710,2870,-1063242462,0,1,1022,-52,177,1848,99830,0,0,65344,8194,-1392510048,-1,0,
18:11:21.575: 32,0:0:0:3445,1,-68,-875,85,2590,-4690,-1120,-1063239389,0,1,981,-2,291,1848,99823,0,0,65344,8194,-1392510048,-1,0,
18:11:21.684: 0,0:0:0:3445,1,-117,-875,134,2100,-3780,2450,-1063241065,0,1,985,-29,212,1848,99819,0,0,65344,8194,-1392510048,-1,0,
18:11:21.898: 32,0:0:0:3445,1,-68,-924,85,3430,-2870,-700,-1063242462,0,1,992,-17,243,1848,99835,0,0,65344,8194,-1392510048,-1,0,
18:11:22.007: 0,0:0:0:3445,1,-19,-875,134,350,-4690,-4200,-1063237992,0,1,990,-12,271,1849,99816,0,0,65344,8194,-1392510048,-1,0,
18:11:22.117: 0,0:0:0:3445,1,-68,-826,85,770,-5950,1120,-1063242475,0,1,993,-19,189,1849,99816,0,0,65344,8194,-1392510048,-1,0,
18:11:22.224: 32,0:0:0:3445,1,78,-777,85,1260,-2870,-1540,-1063242754,0,1,984,-14,249,1849,99827,0,0,65344,8194,-1392510048,-1,0,
18:11:22.438: 0,0:0:0:3445,1,-68,-924,36,770,-7770,210,-1063239680,0,1,984,6,255,1850,99820,0,0,65344,8194,-1392510048,-1,0,
18:11:22.547: 0,0:0:0:3445,1,-68,-826,134,3010,-2870,630,-1063240810,0,1,995,-80,209,1850,99820,0,0,65344,8194,-1392510048,-1,0,
18:11:22.658: 32,0:0:0:3445,1,-19,-924,85,2100,-7280,-2450,-1063241090,0,1,996,18,239,1850,99832,0,0,65344,8194,-1392510048,-1,0,
18:11:22.868: 0,0:0:0:3445,1,-117,-924,182,2590,-1120,3780,-1063237734,0,1,997,-35,216,1851,99813,0,0,65344,8194,-1392510048,-1,0,
18:11:22.977: 0,0:0:0:3445,1,29,-826,85,350,-17710,-1540,-1063242222,0,1,992,-69,249,1851,99813,0,0,65344,8194,-1392510048,-1,0,
18:11:23.088: 0,0:0:0:3445,1,-68,-924,134,770,-3780,-1960,-1063242502,0,1,1003,4,241,1851,99825,0,0,65344,8194,-1392510048,-1,0,
18:11:23.301: 8,0:0:0:3445,1,-19,-875,36,770,-5950,1960,-1063239145,0,1,991,-20,246,1851,99825,0,0,65344,8194,-1392510048,-1,0,
18:11:23.410: 32,0:0:0:3445,1,-19,-875,85,2590,-2450,630,-1063239145,0,1,988,-64,220,1851,99825,0,0,65344,8194,-1392510048,-1,0,
18:11:23.521: 32,0:0:0:3445,1,-19,-875,85,2590,-5530,1540,-1063239145,0,1,974,2,256,1852,99829,0,0,65344,8194,-1392510048,-1,0,
18:11:23.631: 32,0:0:0:3445,1,-68,-777,182,1260,-2870,3290,-1063237478,0,1,974,-15,248,1852,99817,0,0,65344,8194,-1392510048,-1,0,
18:11:23.846: 32,0:0:0:3445,1,-68,-875,134,770,-5110,2450,-1063240557,0,1,977,-42,229,1852,99817,0,0,65344,8194,-1392510048,-1,0,
18:11:23.954: 5,0:0:0:3445,1,-19,-875,182,3430,-3780,-210,-1063240837,0,1,970,2,264,1853,99822,0,0,65344,8194,-1392510048,-1,0,
18:11:24.065: 0,0:0:0:3445,1,-68,-924,134,350,-6440,-2870,-1063238891,0,1,988,-22,259,1852,99829,0,0,65344,8194,-1392510048,-1,0,
18:11:24.281: 32,0:0:0:3445,1,-19,-875,231,3850,-6860,3290,-1063237478,0,1,1005,-3,223,1853,99822,0,0,65344,8194,-1392510048,-1,0,
18:11:24.391: 0,0:0:0:3445,1,-19,-924,182,-13580,-4690,4200,-1063238611,0,1,1002,-54,210,1853,99822,0,0,65344,8194,-1392510048,-1,0,
18:11:24.502: 32,0:0:0:3445,1,29,-875,85,1680,-4620,-4200,-1063238891,0,1,976,-70,238,1853,99810,0,0,65344,8194,-1392510048,-1,0,
18:11:24.716: 0,0:0:0:3445,1,-117,-924,182,770,-700,4200,-1063242252,0,1,983,64,228,1854,99814,0,0,65344,8194,-1392510048,-1,0,
18:11:24.824: 32,0:0:0:3445,1,29,-924,36,350,-4200,6370,-1063240586,0,1,989,-49,237,1854,99826,0,0,65344,8194,-1392510048,-1,0,
18:11:24.932: 8,0:0:0:3445,1,-19,-972,182,3430,-3360,-4620,-1063237224,0,1,992,-94,268,1854,99826,0,0,65344,8194,-1392510048,-1,0,
18:11:25.146: 32,0:0:0:3445,1,-166,-924,85,3850,-4200,-1540,-1063237224,0,1,973,115,367,1854,99826,0,0,65344,8194,-1392510048,-1,0,
18:11:25.257: 8,0:0:0:3445,1,-68,-924,134,3850,-2450,2450,-1063237224,0,1,982,-76,218,1854,99826,0,0,65344,8194,-1392510048,-1,0,
18:11:25.365: 0,0:0:0:3445,1,29,-972,85,2100,-5530,-210,-1063237224,0,1,986,-102,259,1854,99814,0,0,65344,8194,-1392510048,-1,0,
18:11:25.580: 32,0:0:0:3445,1,-214,-875,85,2100,-2870,-3780,-1063240586,0,1,984,135,190,1854,99807,0,0,65344,8194,-1392510048,-1,0,
18:11:25.687: 0,0:0:0:3445,1,-68,-875,182,2100,-3360,630,-1063242548,0,1,990,-51,215,1854,99814,0,0,65344,8194,-1392510048,-1,0,
18:11:25.799: 8,0:0:0:3445,1,78,-875,134,6510,-2870,-700,-1063240586,0,1,975,-100,254,1854,99814,0,0,65344,8194,-1392510048,-1,0,
18:11:25.907: 8,0:0:0:3445,1,-166,-875,36,2590,210,-2870,-1063240586,0,1,970,50,303,1854,99814,0,0,65344,8194,-1392510048,-1,0,
18:11:26.121: 32,0:0:0:3445,1,-19,-875,85,-980,-4200,4200,-1063240586,0,1,992,-34,264,1854,99814,0,0,65344,8194,-1392510048,-1,0,
18:11:26.232: 32,0:0:0:3445,1,29,-924,85,2100,-6440,-700,-1063240586,0,1,986,-70,229,1854,99826,0,0,65344,8194,-1392510048,-1,0,
18:11:26.341: 32,0:0:0:3445,1,-68,-826,85,350,-5530,2870,-1063237224,0,1,988,53,184,1854,99837,0,0,65344,8194,-1392510048,-1,0,
18:11:26.551: 8,0:0:0:3445,1,-68,-826,85,17850,-2870,2450,-1063234142,0,1,986,-17,253,1854,99837,0,0,65344,8194,-1392510048,-1,0,
18:11:26.661: 8,0:0:0:3445,1,-19,-875,134,3010,-5530,1120,-1063233862,0,1,978,-67,203,1853,99822,0,0,65344,8194,-1392510048,-1,0,
18:11:26.772: 0,0:0:0:3445,1,-68,-875,134,3850,-700,-1120,-1063238611,0,1,983,28,234,1853,99833,0,0,65344,8194,-1392510048,-1,0,
18:11:26.985: 8,0:0:0:3445,1,-68,-875,85,4760,-3360,-630,-1063235811,0,1,984,-30,198,1852,99817,0,0,65344,8194,-1392510048,-1,0,
18:11:27.097: 8,0:0:0:3445,1,-19,-826,85,350,-2450,-630,-1063240557,0,1,985,-44,220,1852,99817,0,0,65344,8194,-1392510048,-1,0,
18:11:27.208: 8,0:0:0:3445,1,-68,-875,134,3850,-210,3780,-1063240837,0,1,978,-4,264,1851,99825,0,0,65344,8194,-1392510048,-1,0,
18:11:27.316: 0,0:0:0:3445,1,-19,-826,36,-15820,-6020,210,-1063239145,0,1,976,-43,224,1851,99825,0,0,65344,8194,-1392510048,-1,0,
18:11:27.534: 32,0:0:0:3445,1,-19,-924,182,2590,-5110,-2380,-1063239145,0,1,984,-22,247,1851,99813,0,0,65344,8194,-1392510048,-1,0,
18:11:27.644: 0,0:0:0:3445,1,-68,-826,134,2100,-3360,-630,-1063242502,0,1,988,-25,244,1851,99813,0,0,65344,8194,-1392510048,-1,0,
18:11:27.751: 8,0:0:0:3445,1,-19,-826,134,2100,-700,1960,-1063242502,0,1,981,-29,258,1851,99813,0,0,65344,8194,-1392510048,-1,0,
18:11:27.963: 32,0:0:0:3445,1,-19,-875,85,350,-2030,-13720,-1063242502,0,1,976,-23,268,1851,99825,0,0,65344,8194,-1392510048,-1,0,
18:11:28.074: 0,0:0:0:3445,1,-68,-826,134,1260,-4690,-2870,-1063239145,0,1,984,0,240,1852,99817,0,0,65344,8194,-1392510048,-1,0,
18:11:28.184: 8,0:0:0:3445,1,-19,-826,36,17850,-700,-1540,-1063240837,0,1,978,-2,252,1852,99817,0,0,65344,8194,-1392510048,-1,0,
18:11:28.401: 8,0:0:0:3445,1,-117,-826,134,17430,-4200,-1960,-1063240837,0,1,982,-15,219,1852,99817,0,0,65344,8194,-1392510048,-1,0,
18:11:28.513: 8,0:0:0:3445,1,-68,-875,231,1260,-3360,-630,-1063240837,0,1,981,-26,307,1852,99817,0,0,65344,8194,-1392510048,-1,0,
18:11:28.624: 0,0:0:0:3445,1,-19,-924,182,2590,-2450,1540,-1063240837,0,1,990,-23,244,1853,99822,0,0,65344,8194,-1392510048,-1,0,
18:11:28.732: 0,0:0:0:3445,1,-19,-875,182,5180,-2870,1120,-1063238891,0,1,981,-21,256,1853,99810,0,0,65344,8194,-1392510048,-1,0,
18:11:28.950: 8,0:0:0:3445,1,-68,-875,182,1260,-5950,2380,-1063242252,0,1,969,-31,307,1853,99810,0,0,65344,8194,-1392510048,-1,0,
18:11:29.061: 8,0:0:0:3445,1,-68,-924,231,3010,-1540,1960,-1063242252,0,1,976,-9,270,1853,99822,0,0,65344,8194,-1392510048,-1,0,
18:11:29.169: 0,0:0:0:3445,1,-68,-972,182,5180,-2030,2380,-1063238891,0,1,970,-8,255,1854,99826,0,0,65344,8194,-1392510048,-1,0,
18:11:29.387: 8,0:0:0:3445,1,-117,-826,134,2590,-5950,1960,-1063237224,0,1,962,-16,250,1854,99826,0,0,65344,8194,-1392510048,-1,0,
18:11:29.496: 32,0:0:0:3445,1,-68,-924,134,4760,-7280,1540,-1063237224,0,1,983,-26,281,1854,99814,0,0,65344,8194,-1392510048,-1,0,
18:11:29.608: 32,0:0:0:3445,1,-68,-875,231,3850,-9520,1960,-1063240586,0,1,1010,-53,253,1854,99819,0,0,65344,8194,-1392510048,-1,0,
18:11:29.820: 0,0:0:0:3445,1,-68,-826,182,3850,-7280,-2030,-1063239185,0,1,1005,-18,247,1854,99819,0,0,65344,8194,-1392510048,-1,0,
18:11:29.928: 32,0:0:0:3445,1,-68,-826,134,1680,-9100,-3780,-1063239185,0,1,985,-8,243,1855,99823,0,0,65344,8194,-1392510048,-1,0,
18:11:30.038: 0,0:0:0:3445,1,29,-875,134,2520,-3780,3290,-1063237518,0,1,989,-14,223,1856,99827,0,0,65344,8194,-1392510048,-1,0,
18:11:30.253: 0,0:0:0:3445,1,-68,-924,85,3850,-2870,630,-1063235849,0,1,987,-20,147,1856,99816,0,0,65344,8194,-1392510048,-1,0,
18:11:30.359: 0,0:0:0:3445,1,-19,-826,134,1680,2450,4620,-1063238654,0,1,974,8,196,1856,99804,0,0,65344,8194,-1392510048,-1,0,
18:11:30.469: 8,0:0:0:3445,1,-19,-972,134,1260,630,-210,-1063242301,0,1,964,-25,305,1856,99816,0,0,65344,8194,-1392510048,-1,0,
18:11:30.580: 32,0:0:0:3445,1,-68,-875,182,3430,-8190,14630,-1063239215,0,1,972,-31,291,1856,99804,0,0,65344,8194,-1392510048,-1,0,
18:11:30.797: 0,0:0:0:3445,1,-68,-875,231,7420,-9520,630,-1063242301,0,1,980,-43,257,1856,99816,0,0,65344,8194,-1392510048,-1,0,
18:11:30.907: 0,0:0:0:3445,1,-68,-875,134,2590,-8190,-700,-1063239215,0,1,972,-59,305,1856,99827,0,0,65344,8194,-1392510048,-1,0,
18:11:31.019: 8,0:0:0:3445,1,29,-924,134,350,-9100,-1540,-1063235849,0,1,993,26,246,1856,99839,0,0,65344,8194,-1392510048,-1,0,
18:11:31.232: 32,0:0:0:3445,1,-68,-875,182,1260,-10850,3290,-1063232203,0,1,997,16,175,1856,99827,0,0,65344,8194,-1392510048,-1,0,
18:11:31.341: 0,0:0:0:3445,1,-19,-924,182,1260,210,-630,-1063235569,0,1,990,-33,204,1856,99827,0,0,65344,8194,-1392510048,-1,0,
18:11:31.448: 32,0:0:0:3445,1,-68,-875,36,3850,-3360,-15470,-1063235569,0,1,984,15,183,1855,99823,0,0,65344,8194,-1392510048,-1,0,
18:11:31.665: 32,0:0:0:3445,1,-19,-875,134,3010,-6440,-1540,-1063237237,0,1,979,7,276,1855,99823,0,0,65344,8194,-1392510048,-1,0,
18:11:31.772: 8,0:0:0:3445,1,-19,-875,36,840,-6860,700,-1063237518,0,1,990,-61,167,1854,99819,0,0,65344,8194,-1392510048,-1,0,
18:11:31.884: 0,0:0:0:3445,1,-68,-924,134,3430,-2870,-1960,-1063239185,0,1,984,-20,214,1854,99819,0,0,65344,8194,-1392510048,-1,0,
18:11:31.994: 32,0:0:0:3445,1,-68,-826,85,1680,1540,6440,-1063239185,0,1,980,6,249,1854,99814,0,0,65344,8194,-1392510048,-1,0,
18:11:32.207: 0,0:0:0:3445,1,29,-875,36,2100,-3360,-210,-1063240586,0,1,997,-63,172,1854,99826,0,0,65344,8194,-1392510048,-1,0,
18:11:32.316: 32,0:0:0:3445,1,-68,-924,134,350,-3780,-3710,-1063237224,0,1,979,28,264,1854,99826,0,0,65344,8194,-1392510048,-1,0,
18:11:32.427: 8,0:0:0:3445,1,-117,-826,134,3010,-3780,2030,-1063237224,0,1,977,-49,266,1853,99822,0,0,65344,8194,-1392510048,-1,0,
18:11:32.641: 32,0:0:0:3445,1,78,-826,85,3010,-2030,-630,-1063238891,0,1,994,-35,215,1854,99826,0,0,65344,8194,-1392510048,-1,0,
18:11:32.748: 0,0:0:0:3445,1,-68,-924,85,1680,-2870,-1960,-1063237224,0,1,985,10,248,1854,99814,0,0,65344,8194,-1392510048,-1,0,
18:11:32.857: 8,0:0:0:3445,1,-68,-875,85,2590,-5110,210,-1063240586,0,1,982,-25,235,1853,99810,0,0,65344,8194,-1392510048,-1,0,
18:11:33.073: 0,0:0:0:3445,1,-68,-875,36,5180,-9940,210,-1063242252,0,1,975,-6,274,1854,99814,0,0,65344,8194,-1392510048,-1,0,
18:11:33.195: 8,0:0:0:3445,1,-19,-826,134,3850,-3780,3780,-1063240586,0,1,997,9,163,1854,99826,0,0,65344,8194,-1392510048,-1,0,
18:11:33.315: 0,0:0:0:3445,1,-68,-924,134,4340,-3780,-210,-1063237224,0,1,980,-37,285,1853,99822,0,0,65344,8194,-1392510048,-1,0,
18:11:33.423: 8,0:0:0:3445,1,-19,-826,85,1260,-3780,2870,-1063238891,0,1,974,13,253,1853,99822,0,0,65344,8194,-1392510048,-1,0,
18:11:33.632: 0,0:0:0:3445,1,-68,-875,134,3850,-3360,1120,-1063238891,0,1,979,-31,246,1853,99822,0,0,65344,8194,-1392510048,-1,0,
18:11:33.741: 0,0:0:0:3445,1,29,-826,182,2100,-5530,-210,-1063238891,0,1,996,-14,190,1853,99810,0,0,65344,8194,-1392510048,-1,0,
18:11:33.847: 0,0:0:0:3445,1,-117,-826,182,2100,-2870,-2450,-1063242252,0,1,994,-7,244,1853,99822,0,0,65344,8194,-1392510048,-1,0,
18:11:34.060: 8,0:0:0:3445,1,-19,-924,280,1680,-9100,1540,-1063238891,0,1,976,-25,255,1853,99810,0,0,65344,8194,-1392510048,-1,0,
18:11:34.165: 0,0:0:0:3445,1,-68,-875,134,2100,-5110,210,-1063242252,0,1,975,-12,188,1852,99817,0,0,65344,8194,-1392510048,-1,0,
18:11:34.273: 8,0:0:0:3445,1,-117,-875,85,3010,-3360,-1120,-1063240837,0,1,971,8,258,1852,99829,0,0,65344,8194,-1392510048,-1,0,
18:11:34.486: 0,0:0:0:3445,1,-19,-972,85,4340,-5950,-2450,-1063237478,0,1,993,-14,201,1853,99822,0,0,65344,8194,-1392510048,-1,0,
18:11:34.597: 0,0:0:0:3445,1,-19,-875,85,1260,-2450,700,-1063238611,0,1,998,-15,272,1853,99822,0,0,65344,8194,-1392510048,-1,0,
18:11:34.708: 0,0:0:0:3445,1,-19,-972,85,-980,-5950,2450,-1063238891,0,1,984,-32,271,1853,99822,0,0,65344,8194,-1392510048,-1,0,
18:11:34.818: 0,0:0:0:3445,1,-68,-924,36,1260,-700,-1540,-1063238891,0,1,973,-4,232,1853,99822,0,0,65344,8194,-1392510048,-1,0,
18:11:35.035: 8,0:0:0:3445,1,-68,-875,85,1680,-7770,1120,-1063238891,0,1,982,4,217,1854,99814,0,0,65344,8194,-1392510048,-1,0,
18:11:35.146: 0,0:0:0:3445,1,29,-826,182,-1400,-2450,-700,-1063240586,0,1,991,-32,237,1854,99814,0,0,65344,8194,-1392510048,-1,0,
18:11:35.252: 32,0:0:0:3445,1,-19,-826,85,-490,-3780,1540,-1063240586,0,1,996,-6,219,1854,99830,0,0,65344,8194,-1392510048,-1,0,
18:11:35.465: 0,0:0:0:3445,1,-68,-875,134,2590,-4620,17710,-1063236103,0,1,989,-7,251,1854,99819,0,0,65344,8194,-1392510048,-1,0,
18:11:35.574: 0,0:0:0:3445,1,-19,-875,134,-70,-6440,-210,-1063238905,0,1,980,-14,214,1854,99830,0,0,65344,8194,-1392510048,-1,0,
18:11:35.682: 8,0:0:0:3445,1,-117,-826,134,3850,-8610,16380,-1063236103,0,1,976,18,229,1855,99823,0,0,65344,8194,-1392510048,-1,0,
18:11:35.793: 8,0:0:0:3445,1,-68,-875,182,2100,-3780,1960,-1063237237,0,1,991,-65,231,1855,99812,0,0,65344,8194,-1392510048,-1,0,
18:11:36.009: 32,0:0:0:3445,1,-117,-826,36,-490,-5110,-700,-1063240602,0,1,1001,-11,257,1855,99823,0,0,65344,8194,-1392510048,-1,0,
18:11:36.118: 0,0:0:0:3445,1,-19,-875,182,3010,-4620,-14630,-1063237518,0,1,1003,-9,261,1855,99812,0,0,65344,8194,-1392510048,-1,0,
18:11:36.228: 0,0:0:0:3445,1,-19,-875,134,-490,-4200,-1120,-1063240602,0,1,1001,-14,188,1855,99812,0,0,65344,8194,-1392510048,-1,0,
18:11:36.439: 0,0:0:0:3445,1,-68,-826,85,3010,-5530,-700,-1063240602,0,1,994,-24,210,1855,99823,0,0,65344,8194,-1392510048,-1,0,
18:11:36.547: 8,0:0:0:3445,1,29,-826,134,3430,-5950,1050,-1063237518,0,1,977,-9,212,1856,99839,0,0,65344,8194,-1392510048,-1,0,
18:11:36.653: 0,0:0:0:3445,1,-19,-777,85,3010,-4620,-210,-1063232483,0,1,963,-40,262,1856,99816,0,0,65344,8194,-1392510048,-1,0,
18:11:36.865: 8,0:0:0:3445,1,-68,-875,134,1680,-3780,-15050,-1063238654,0,1,971,-2,301,1856,99816,0,0,65344,8194,-1392510048,-1,0,
18:11:36.973: 0,0:0:0:3445,1,-68,-924,85,4340,-5950,1120,-1063238934,0,1,991,-42,237,1856,99804,0,0,65344,8194,-1392510048,-1,0,
18:11:37.083: 32,0:0:0:3445,1,-19,-826,36,1680,-1120,1540,-1063242301,0,1,994,9,263,1856,99827,0,0,65344,8194,-1392510048,-1,0,
18:11:37.291: 8,0:0:0:3445,1,-68,-924,182,3430,-7770,1050,-1063236130,0,1,1001,-4,223,1856,99816,0,0,65344,8194,-1392510048,-1,0,
18:11:37.401: 8,0:0:0:3445,1,-19,-826,134,-490,-3360,-1120,-1063238934,0,1,986,-9,200,1856,99827,0,0,65344,8194,-1392510048,-1,0,
18:11:37.512: 0,0:0:0:3445,1,-117,-826,134,3010,-2870,-16870,-1063235849,0,1,976,33,222,1857,99832,0,0,65344,8194,-1392510048,-1,0,
18:11:37.727: 32,0:0:0:3445,1,-68,-826,231,1680,-6440,1540,-1063233618,0,1,974,-55,242,1857,99820,0,0,65344,8194,-1392510048,-1,0,
18:11:37.837: 32,0:0:0:3445,1,-19,-875,134,3430,-2030,17710,-1063236986,0,1,988,-17,281,1857,99832,0,0,65344,8194,-1392510048,-1,0,
18:11:37.948: 0,0:0:0:3445,1,29,-826,85,1260,-6440,17220,-1063233899,0,1,982,10,216,1857,99809,0,0,65344,8194,-1392510048,-1,0,
18:11:38.164: 0,0:0:0:3445,1,-19,-875,85,770,-2030,210,-1063240073,0,1,983,-33,223,1857,99832,0,0,65344,8194,-1392510048,-1,0,
18:11:38.274: 32,0:0:0:3445,1,29,-924,134,4760,-8610,15890,-1063233899,0,1,986,30,179,1856,99816,0,0,65344,8194,-1392510048,-1,0,
18:11:38.382: 0,0:0:0:3445,1,-68,-875,231,770,-5950,1960,-1063238654,0,1,970,-8,241,1856,99816,0,0,65344,8194,-1392510048,-1,0,
18:11:38.494: 0,0:0:0:3445,1,-117,-924,182,350,-2450,5530,-1063238934,0,1,965,-27,269,1856,99816,0,0,65344,8194,-1392510048,-1,0,
18:11:38.707: 0,0:0:0:3445,1,-68,-875,134,4340,-4200,1120,-1063238934,0,1,966,17,250,1856,99827,0,0,65344,8194,-1392510048,-1,0,
18:11:38.816: 0,0:0:0:3445,1,-68,-875,134,350,-1540,1960,-1063235849,0,1,975,-26,241,1856,99827,0,0,65344,8194,-1392510048,-1,0,
18:11:38.924: 0,0:0:0:3445,1,-19,-875,36,3010,-7770,1050,-1063235569,0,1,989,-31,220,1856,99816,0,0,65344,8194,-1392510048,-1,0,
18:11:39.136: 0,0:0:0:3445,1,-68,-875,134,6090,-5530,-4200,-1063238654,0,1,991,-11,228,1856,99804,0,0,65344,8194,-1392510048,-1,0,
18:11:39.247: 32,0:0:0:3445,1,-68,-924,85,1680,-5950,1540,-1063242301,0,1,991,-29,235,1856,99816,0,0,65344,8194,-1392510048,-1,0,
18:11:39.358: 8,0:0:0:3445,1,-68,-875,182,770,-5110,-1540,-1063239215,0,1,988,7,221,1856,99816,0,0,65344,8194,-1392510048,-1,0,
18:11:39.573: 32,0:0:0:3445,1,-19,-924,36,350,-2450,2380,-1063238934,0,1,989,-23,249,1856,99827,0,0,65344,8194,-1392510048,-1,0,
18:11:39.684: 8,0:0:0:3445,1,29,-826,134,2100,-5530,-700,-1063235849,0,1,979,-5,234,1856,99816,0,0,65344,8194,-1392510048,-1,0,
18:11:39.795: 8,0:0:0:3445,1,-117,-972,182,1680,-5530,1050,-1063238654,0,1,974,-13,248,1856,99816,0,0,65344,8194,-1392510048,-1,0,
18:11:39.903: 32,0:0:0:3445,1,-19,-924,85,-490,-4200,-700,-1063238934,0,1,990,1,228,1856,99816,0,0,65344,8194,-1392510048,-1,0,
18:11:40.115: 32,0:0:0:3445,1,-68,-875,85,3010,-4200,-280,-1063238934,0,1,997,-11,226,1857,99832,0,0,65344,8194,-1392510048,-1,0,
18:11:40.221: 0,0:0:0:3445,1,-68,-875,134,3010,-1120,1050,-1063233899,0,1,991,-3,223,1856,99816,0,0,65344,8194,-1392510048,-1,0,
18:11:40.331: 0,0:0:0:3445,1,29,-826,134,-2310,-4200,-280,-1063238654,0,1,983,-21,225,1857,99820,0,0,65344,8194,-1392510048,-1,0,
18:11:40.544: 0,0:0:0:3445,1,-68,-924,134,4760,-2450,-700,-1063237266,0,1,990,-13,244,1858,99824,0,0,65344,8194,-1392510048,-1,0,
18:11:40.653: 0,0:0:0:3445,1,29,-826,134,1680,-3780,630,-1063235597,0,1,979,-15,248,1858,99824,0,0,65344,8194,-1392510048,-1,0,
18:11:40.764: 0,0:0:0:3445,1,-19,-875,134,2520,-3780,-3780,-1063235597,0,1,987,-1,226,1858,99813,0,0,65344,8194,-1392510048,-1,0,
18:11:40.976: 0,0:0:0:3445,1,-68,-924,182,6510,-5110,2380,-1063238686,0,1,990,-25,239,1859,99817,0,0,65344,8194,-1392510048,-1,0,
18:11:41.087: 0,0:0:0:3445,1,-68,-875,85,3430,-9100,2870,-1063237017,0,1,987,-10,254,1859,99817,0,0,65344,8194,-1392510048,-1,0,
18:11:41.198: 32,0:0:0:3445,1,-19,-924,134,770,-2870,2870,-1063237017,0,1,991,-16,248,1860,99833,0,0,65344,8194,-1392510048,-1,0,
18:11:41.410: 0,0:0:0:3445,1,-117,-826,134,2520,-2870,210,134249747,537067056,134242409,980,-27,258,1860,99821,0,0,65344,8194,-1392510048,-1,0,
18:11:41.520: 0,0:0:0:3445,1,-19,-875,182,1260,-700,2870,-1063235065,0,1084134400,985,-13,228,1860,99821,0,0,65344,8194,-1392510048,-1,0,
18:11:41.630: 0,0:0:0:3445,1,-117,-875,85,5600,-2030,1960,-1063235346,0,1084134400,990,-2,228,1860,99821,0,0,65344,8194,-1392510048,-1,0,
18:11:41.846: 0,0:0:0:3445,1,-68,-875,85,3850,-3780,-2450,-1063235346,0,1084134400,987,-29,234,1861,99826,0,0,65344,8194,-1392510048,-1,0,
18:11:41.957: 8,0:0:0:3445,1,-68,-875,134,3010,-4200,1540,-1063233394,0,1084135424,987,-3,246,1861,99826,0,0,65344,8194,-1392510048,-1,0,
18:11:42.170: 0,0:0:0:3445,1,-68,-924,85,3010,-4620,3710,-1063233394,0,1084135424,983,-39,217,1861,99830,0,0,65344,8194,-1392510048,-1,0,
18:11:42.279: 8,0:0:0:3445,1,-19,-924,134,3430,-6440,1960,-1063232269,0,1084135424,985,-4,241,1861,99830,0,0,65344,8194,-1392510048,-1,0,
18:11:42.390: 0,0:0:0:3445,1,-19,-875,134,2520,-5950,2380,-1063231988,0,1084135424,991,0,223,1862,99834,0,0,65344,8194,-1392510048,-1,0,
18:11:42.602: 32,0:0:0:3445,1,-19,-777,134,3430,-4200,1960,-1063230315,0,1084136448,986,-24,244,1862,99823,0,0,65344,8194,-1392510048,-1,0,
18:11:42.713: 0,0:0:0:3445,1,-68,-924,36,4760,-5950,210,-1063233410,0,1084136448,990,8,244,1862,99834,0,0,65344,8194,-1392510048,-1,0,
18:11:42.926: 32,0:0:0:3445,1,-68,-875,85,3430,-3360,-280,-1063230596,0,1084136448,990,-20,243,1862,99823,0,0,65344,8194,-1392510048,-1,0,
18:11:43.036: 32,0:0:0:3445,1,-68,-826,-12,6090,-2030,210,-1063233410,0,1084136448,987,120,231,1863,99827,0,0,65344,8194,-1392510048,-1,0,
18:11:43.147: 0,0:0:0:3445,1,-68,-875,85,350,-5530,-2030,-1063232018,0,1084137472,984,-25,220,1863,99816,0,0,65344,8194,-1392510048,-1,0,
18:11:43.363: 8,0:0:0:3445,1,-19,-826,182,17430,-9520,-1120,-1063234287,0,1084138496,976,1,211,1863,99827,0,0,65344,8194,-1392510048,-1,0,
18:11:43.470: 0,0:0:0:3445,1,-19,-924,182,2520,-5110,2380,-1063231471,0,1084138496,987,-10,236,1863,99816,0,0,65344,8194,-1392510048,-1,0,
18:11:43.688: 0,0:0:0:3445,1,29,-875,-12,4340,-4200,1050,-1063234287,0,1084138496,993,-81,257,1863,99839,0,0,65344,8194,-1392510048,-1,0,
18:11:43.798: 6,0:0:0:3445,1,29,-924,36,-70,1120,2870,-1063228092,0,1084138496,978,-13,289,1863,99827,0,0,65344,8194,-1392510048,-1,0,
18:11:43.908: 8,0:0:0:3445,1,-19,-924,85,3430,-2870,-16380,-1063231189,0,1084138496,976,-7,254,1863,99827,0,0,65344,8194,-1392510048,-1,0,
18:11:44.126: 0,0:0:0:3445,1,-68,-875,182,2100,-3360,-700,-1063231189,0,1084138496,976,5,204,1863,99827,0,0,65344,8194,-1392510048,-1,0,
18:11:44.237: 0,0:0:0:3445,1,-68,-826,134,350,-700,630,-1063231189,0,1084138496,988,22,177,1862,99834,0,0,65344,8194,-1392510048,-1,0,
18:11:44.347: 32,0:0:0:3445,1,-19,-924,231,3430,-5110,630,-1063229766,0,1084137472,991,-9,209,1863,99827,0,0,65344,8194,-1392510048,-1,0,
18:11:44.561: 0,0:0:0:3445,1,-19,-924,134,770,-1540,-1120,-1063231189,0,1084138496,993,-25,241,1863,99816,0,0,65344,8194,-1392510048,-1,0,
18:11:44.670: 0,0:0:0:3445,1,-68,-924,231,1680,-5530,-1120,-1063234287,0,1084138496,982,-11,226,1863,99816,0,0,65344,8194,-1392510048,-1,0,
18:11:44.881: 32,0:0:0:3445,1,-19,-826,134,2100,-3360,17220,-1063234569,0,1084138496,975,-4,266,1864,99820,0,0,65344,8194,-1392510048,-1,0,
18:11:44.992: 32,0:0:0:3445,1,-68,-826,85,-1400,-4200,-1120,-1063232896,0,1084139520,985,-24,230,1864,99820,0,0,65344,8194,-1392510048,-1,0,
18:11:45.207: 8,0:0:0:3445,1,-19,-875,85,-14070,-3780,630,-1063232896,0,1084139520,985,-23,242,1864,99820,0,0,65344,8194,-1392510048,-1,0,
18:11:45.318: 32,0:0:0:3445,1,29,-924,134,2520,-6440,2800,-1063232896,0,1084139520,979,9,223,1864,99820,0,0,65344,8194,-1392510048,-1,0,
18:11:45.430: 0,0:0:0:3445,1,-19,-875,85,3430,-3360,4130,-1063232896,0,1084139520,975,-19,214,1864,99820,0,0,65344,8194,-1392510048,-1,0,
18:11:45.644: 0,0:0:0:3445,1,29,-875,36,4270,-3780,-1120,-1063232896,0,1084139520,975,-5,238,1864,99831,0,0,65344,8194,-1392510048,-1,0,
18:11:45.753: 0,0:0:0:3445,1,-68,-875,182,6090,-11270,-2030,-1063229797,0,1084139520,981,6,261,1865,99824,0,0,65344,8194,-1392510048,-1,0,
18:11:45.965: 0,0:0:0:3445,1,-68,-924,134,770,-5530,-2940,-1063230940,0,1084140544,980,-33,219,1865,99824,0,0,65344,8194,-1392510048,-1,0,
18:11:46.072: 32,0:0:0:3445,1,-117,-875,85,-560,630,2800,-1063231222,0,1084140544,993,-7,207,1865,99813,0,0,65344,8194,-1392510048,-1,0,
18:11:46.181: 0,0:0:0:3445,1,-19,-924,134,2520,-2450,1960,-1063234324,0,1084140544,994,17,228,1865,99829,0,0,65344,8194,-1392510048,-1,0,
18:11:46.394: 8,0:0:0:3445,1,-19,-826,182,2100,-5110,-1610,-1063229813,0,1084140544,986,-10,256,1865,99829,0,0,65344,8194,-1392510048,-1,0,
18:11:46.505: 32,0:0:0:3445,1,-68,-875,231,1260,-7770,-15540,-1063229531,0,1084140544,982,-35,234,1865,99813,0,0,65344,8194,-1392510048,-1,0,
18:11:46.722: 0,0:0:0:3445,1,-117,-875,134,770,-4200,4620,-1063234042,0,1084140544,992,-14,241,1865,99817,0,0,65344,8194,-1392510048,-1,0,
18:11:46.833: 0,0:0:0:3445,1,-19,-777,85,4340,-5530,1540,-1063233196,0,1084140544,1000,-20,282,1865,99829,0,0,65344,8194,-1392510048,-1,0,
18:11:46.944: 0,0:0:0:3445,1,-19,-875,134,-11410,-5530,1050,-1063229813,0,1084140544,988,-18,208,1865,99829,0,0,65344,8194,-1392510048,-1,0,
18:11:47.156: 0,0:0:0:3445,1,-68,-875,134,1260,-3780,-6020,-1063229531,0,1084140544,985,-25,278,1865,99829,0,0,65344,8194,-1392510048,-1,0,
18:11:47.266: 6,0:0:0:3445,1,-68,-826,134,2100,-7280,630,-1063229531,0,1084140544,989,-21,224,1865,99817,0,0,65344,8194,-1392510048,-1,0,
18:11:47.479: 0,0:0:0:3445,1,-68,-875,134,1260,-2450,2380,-1063232914,0,1084140544,971,-5,209,1865,99829,0,0,65344,8194,-1392510048,-1,0,
18:11:47.589: 0,0:0:0:3445,1,-19,-826,182,2100,-2870,630,-1063229813,0,1084140544,964,-41,264,1865,99817,0,0,65344,8194,-1392510048,-1,0,
18:11:47.698: 8,0:0:0:3445,1,-117,-924,134,3010,-3360,2800,-1063232914,0,1084140544,980,40,215,1866,99833,0,0,65344,8194,-1392510048,-1,0,
18:11:47.914: 32,0:0:0:3445,1,-68,-924,182,3850,-6860,-280,-1063228137,0,1084141568,989,-45,280,1866,99821,0,0,65344,8194,-1392510048,-1,0,
18:11:48.024: 0,0:0:0:3445,1,-19,-875,134,350,-4620,140,-1063231240,0,1084141568,996,-29,218,1866,99821,0,0,65344,8194,-1392510048,-1,0,
18:11:48.232: 0,0:0:0:3445,1,-68,-826,-12,770,-4620,2380,-1063231522,0,1084141568,989,7,225,1866,99810,0,0,65344,8194,-1392510048,-1,0,
18:11:48.339: 8,0:0:0:3445,1,-19,-875,134,2100,-5530,1470,-1063234625,0,1084141568,985,-17,219,1866,99821,0,0,65344,8194,-1392510048,-1,0,
18:11:48.448: 8,0:0:0:3445,1,-19,-875,134,2520,-2450,140,-1063231522,0,1084141568,984,-4,264,1866,99814,0,0,65344,8194,-1392510048,-1,0,
18:11:48.660: 32,0:0:0:3445,1,-68,-875,182,3850,-5530,1050,-1063233496,0,1084141568,981,-4,240,1866,99826,0,0,65344,8194,-1392510048,-1,0,
18:11:48.770: 0,0:0:0:3445,1,29,-875,182,16940,-1540,-2450,-1063230111,0,1084141568,987,-51,209,1866,99814,0,0,65344,8194,-1392510048,-1,0,
18:11:48.988: 0,0:0:0:3445,1,29,-875,85,3010,-3360,3710,-1063233496,0,1084141568,985,6,125,1866,99826,0,0,65344,8194,-1392510048,-1,0,
18:11:49.098: 8,0:0:0:3445,1,-68,-875,36,5180,-3780,1960,-1063230111,0,1084141568,996,8,212,1866,99826,0,0,65344,8194,-1392510048,-1,0,
18:11:49.205: 32,0:0:0:3445,1,-68,-924,134,1680,-1540,-2030,-1063230111,0,1084141568,992,-28,254,1866,99814,0,0,65344,8194,-1392510048,-1,0,
18:11:49.422: 0,0:0:0:3445,1,-117,-875,85,2100,-7770,1470,-1063233496,0,1084141568,992,27,203,1867,99830,0,0,65344,8194,-1392510048,-1,0,
18:11:49.529: 0,0:0:0:3445,1,-68,-826,182,2100,-4620,630,-1063228435,0,1084142592,988,-39,219,1867,99818,0,0,65344,8194,-1392510048,-1,0,
18:11:49.741: 8,0:0:0:3445,1,-19,-972,36,1680,-5110,2380,-1063231540,0,1084142592,990,0,254,1868,99823,0,0,65344,8194,-1392510048,-1,0,
18:11:49.852: 32,0:0:0:3445,1,-19,-875,182,1680,-5950,3220,-1063229864,0,1084143616,984,-2,236,1868,99811,0,0,65344,8194,-1392510048,-1,0,
18:11:49.964: 0,0:0:0:3445,1,-19,-875,182,-1400,-3290,2380,-1063233253,0,1084143616,981,-24,210,1868,99823,0,0,65344,8194,-1392510048,-1,0,
18:11:50.179: 0,0:0:0:3445,1,-19,-924,85,1260,-3780,1890,-1063229864,0,1084143616,977,11,234,1869,99827,0,0,65344,8194,-1392510048,-1,0,
18:11:50.286: 8,0:0:0:3445,1,29,-972,134,3430,-5530,1050,-1063228187,0,1084144640,987,-40,232,1870,99820,0,0,65344,8194,-1392510048,-1,0,
18:11:50.499: 8,0:0:0:3445,1,-19,-924,134,2520,-3290,2800,-1063229336,0,1084145664,987,-11,251,1870,99820,0,0,65344,8194,-1392510048,-1,0,
18:11:50.607: 8,0:0:0:3445,1,29,-875,85,3010,-210,1470,-1063229619,0,1084145664,985,-10,216,1870,99831,0,0,65344,8194,-1392510048,-1,0,
18:11:50.716: 0,0:0:0:3445,1,-19,-826,85,3010,-1960,2380,-1063226510,0,1084145664,990,-4,241,1871,99835,0,0,65344,8194,-1392510048,-1,0,
18:11:50.933: 0,0:0:0:3445,1,-68,-924,85,3850,-3290,140,-1063224548,0,1084146688,989,-25,251,1871,99835,0,0,65344,8194,-1392510048,-1,0,
18:11:51.042: 8,0:0:0:3445,1,-117,-826,85,1260,-2030,2800,-1063224548,0,1084146688,982,-11,219,1872,99840,0,0,65344,8194,-1392510048,-1,0,
18:11:51.257: 32,0:0:0:3445,1,-68,-826,134,4270,-2870,140,-1063222585,0,1084147712,991,0,222,1872,99817,0,0,65344,8194,-1392510048,-1,0,
18:11:51.366: 0,0:0:0:3445,1,-68,-875,85,2100,-6440,630,-1063229092,0,1084147712,991,-30,266,1872,99817,0,0,65344,8194,-1392510048,-1,0,
18:11:51.474: 8,0:0:0:3445,1,-68,-924,182,1260,-3290,-15120,-1063229375,0,1084147712,984,-17,247,1872,99817,0,0,65344,8194,-1392510048,-1,0,
18:11:51.689: 8,0:0:0:3445,1,-19,-875,182,17360,-4620,-280,-1063229375,0,1084147712,977,0,251,1872,99817,0,0,65344,8194,-1392510048,-1,0,
18:11:51.799: 8,0:0:0:3445,1,-117,-972,134,3010,-210,2800,-1063229375,0,1084147712,976,-13,257,1872,99817,0,0,65344,8194,-1392510048,-1,0,
18:11:52.013: 32,0:0:0:3445,1,29,-875,134,1260,-5110,1050,-1063229375,0,1084147712,976,-4,241,1872,99817,0,0,65344,8194,-1392510048,-1,0,
18:11:52.125: 0,0:0:0:3445,1,-117,-875,134,770,-4200,1890,-1063229375,0,1084147712,985,-4,223,1872,99817,0,0,65344,8194,-1392510048,-1,0,
18:11:52.236: 64,0:0:0:3445,1,-19,-875,134,1260,-3290,16730,-1063229375,0,1084147712,990,-19,235,1873,99810,0,0,65344,8194,-1392510048,-1,0,
18:11:52.453: 0,0:0:0:3445,1,-19,-972,85,2520,-4620,17150,-1063230811,0,1084148736,991,-20,259,1873,99810,0,0,65344,8194,-1392510048,-1,0,
18:11:52.563: 32,0:0:0:3445,1,-117,-972,134,3010,-2870,560,-1063230811,0,1084148736,992,-11,218,1873,99810,0,0,65344,8194,-1392510048,-1,0,
18:11:52.777: 0,0:0:0:3445,1,29,-875,182,2520,-7280,-280,-1063230811,0,1084148736,989,-40,242,1873,99810,0,0,65344,8194,-1392510048,-1,0,
18:11:52.886: 32,0:0:0:3445,1,29,-728,85,4270,-6860,-3850,-1063230811,0,1084148736,997,-11,254,1873,99821,0,0,65344,8194,-1392510048,-1,0,
18:11:52.996: 0,0:0:0:3445,1,-19,-826,182,2520,-1960,-770,-1063227697,0,1084148736,998,-17,225,1873,99821,0,0,65344,8194,-1392510048,-1,0,
18:11:53.213: 32,0:0:0:3445,1,29,-826,182,2100,-1960,560,-1063227697,0,1084148736,997,-16,210,1873,99810,0,0,65344,8194,-1392510048,-1,0,
18:11:53.322: 0,0:0:0:3445,1,-68,-875,134,1680,-2450,2380,-1063230811,0,1084148736,976,3,231,1873,99814,0,0,65344,8194,-1392510048,-1,0,
18:11:53.532: 32,0:0:0:3445,1,-19,-875,134,1190,-3290,1470,-1063229679,0,1084148736,978,6,218,1873,99814,0,0,65344,8194,-1392510048,-1,0,
18:11:53.644: 0,0:0:0:3445,1,-19,-875,134,3010,-2870,140,-1063229679,0,1084148736,982,-25,287,1873,99825,0,0,65344,8194,-1392510048,-1,0,
18:11:53.756: 0,0:0:0:3445,1,-117,-875,134,1190,-4200,2380,-1063226565,0,1084148736,1002,-12,222,1874,99818,0,0,65344,8194,-1392510048,-1,0,
18:11:53.969: 0,0:0:0:3445,1,-68,-826,182,-12740,-2450,1470,-1063228000,0,1084149760,985,-28,238,1874,99830,0,0,65344,8194,-1392510048,-1,0,
18:11:54.080: 0,0:0:0:3445,1,-68,-875,85,1260,-3290,1890,-1063224602,0,1084149760,982,-11,266,1874,99818,0,0,65344,8194,-1392510048,-1,0,
18:11:54.295: 0,0:0:0:3445,1,-68,-826,85,-70,-4620,1050,-1063227717,0,1084149760,974,-8,250,1874,99807,0,0,65344,8194,-1392510048,-1,0,
18:11:54.406: 8,0:0:0:3445,1,-19,-875,134,2100,-4200,-2520,-1063231116,0,1084149760,972,-24,184,1875,99811,0,0,65344,8194,-1392510048,-1,0,
18:11:54.515: 8,0:0:0:3445,1,29,-924,182,-560,-4200,-1190,-1063229438,0,1084150784,983,-26,242,1874,99818,0,0,65344,8194,-1392510048,-1,0,
18:11:54.727: 8,0:0:0:3445,1,-117,-826,134,2520,-6860,1050,-1063228000,0,1084149760,990,2,239,1874,99830,0,0,65344,8194,-1392510048,-1,0,
18:11:54.839: 32,0:0:0:3445,1,-19,-875,85,3010,-7280,140,-1063224602,0,1084149760,988,-30,211,1874,99818,0,0,65344,8194,-1392510048,-1,0,
18:11:55.052: 32,0:0:0:3445,1,-19,-875,134,2100,-2450,-2030,-1063227717,0,1084149760,982,0,200,1874,99795,0,0,65344,8194,-1392510048,-1,0,
18:11:55.164: 0,0:0:0:3445,1,-68,-826,85,1260,-2450,5460,-1063234515,0,1084149760,977,-19,205,1874,99795,0,0,65344,8194,-1392510048,-1,0,
18:11:55.276: 0,0:0:0:3445,1,-19,-924,182,350,-5110,-2520,-1063234798,0,1084149760,993,-25,217,1873,99802,0,0,65344,8194,-1392510048,-1,0,
18:11:55.486: 0,0:0:0:3445,1,-117,-875,134,3430,-5950,-1190,-1063233359,0,1084148736,1000,7,200,1873,99802,0,0,65344,8194,-1392510048,-1,0,
18:11:55.598: 0,0:0:0:3445,1,-19,-875,85,-15820,630,2380,-1063233359,0,1084148736,998,0,260,1874,99818,0,0,65344,8194,-1392510048,-1,0,
18:11:55.815: 0,0:0:0:3445,1,-19,-875,134,4270,-6440,-2520,-1063228283,0,1084149760,989,-25,228,1873,99814,0,0,65344,8194,-1392510048,-1,0,
18:11:55.925: 0,0:0:0:3445,1,-19,-826,85,2520,-7770,1470,-1063229679,0,1084148736,975,-20,214,1873,99821,0,0,65344,8194,-1392510048,-1,0,
18:11:56.036: 0,0:0:0:3445,1,-68,-826,85,1680,-6860,1050,-1063227697,0,1084148736,976,18,207,1873,99825,0,0,65344,8194,-1392510048,-1,0,
18:11:56.249: 0,0:0:0:3445,1,-68,-924,182,3850,-2030,630,-1063226565,0,1084148736,1002,-3,207,1873,99821,0,0,65344,8194,-1392510048,-1,0,
18:11:56.354: 0,0:0:0:3445,1,-19,-924,134,1260,-700,1050,-1063227697,0,1084148736,995,-27,193,1873,99821,0,0,65344,8194,-1392510048,-1,0,
18:11:56.567: 0,0:0:0:3445,1,-68,-924,134,1680,-5530,-700,-1063227697,0,1084148736,987,-1,305,1873,99810,0,0,65344,8194,-1392510048,-1,0,
18:11:56.678: 0,0:0:0:3445,1,-19,-924,182,1260,-7770,-1120,-1063230811,0,1084148736,991,9,66,1872,99817,0,0,65344,8194,-1392510048,-1,0,
18:11:56.789: 0,0:0:0:3445,1,-68,-875,36,770,-2450,-4200,-1063229375,0,1084147712,982,-29,253,1872,99805,0,0,65344,8194,-1392510048,-1,0,
18:11:57.002: 0,0:0:0:3445,1,-68,-924,85,5600,-5110,-2030,-1063232771,0,1084147712,982,-15,229,1871,99813,0,0,65344,8194,-1392510048,-1,0,
18:11:57.113: 8,0:0:0:3445,1,-19,-924,36,6090,-3780,-280,-1063231335,0,1084146688,977,-7,218,1871,99824,0,0,65344,8194,-1392510048,-1,0,
18:11:57.223: 0,0:0:0:3445,1,-117,-924,85,2100,-4200,3290,-1063227941,0,1084146688,975,-12,285,1870,99820,0,0,65344,8194,-1392510048,-1,0,
18:11:57.434: 0,0:0:0:3445,1,-68,-875,85,3010,-8610,15890,-1063229619,0,1084145664,990,-20,195,1870,99820,0,0,65344,8194,-1392510048,-1,0,
18:11:57.544: 0,0:0:0:3445,1,-117,-826,134,6510,-4620,-280,-1063229619,0,1084145664,989,9,240,1870,99820,0,0,65344,8194,-1392510048,-1,0,
18:11:57.761: 8,0:0:0:3445,1,-68,-826,134,770,-5950,-2030,-1063229619,0,1084145664,984,-27,261,1870,99820,0,0,65344,8194,-1392510048,-1,0,
18:11:57.867: 32,0:0:0:3445,1,-19,-826,182,3010,-3780,1050,-1063229619,0,1084145664,990,16,181,1870,99820,0,0,65344,8194,-1392510048,-1,0,
18:11:58.081: 0,0:0:0:3445,1,-68,-972,134,2100,-5950,-280,-1063229619,0,1084145664,982,-10,214,1870,99820,0,0,65344,8194,-1392510048,-1,0,
18:11:58.192: 0,0:0:0:3445,1,29,-875,134,6090,-700,-4690,-1063229619,0,1084145664,964,-43,259,1871,99824,0,0,65344,8194,-1392510048,-1,0,
18:11:58.302: 0,0:0:0:3445,1,-117,-875,134,4270,-3290,1050,-1063227941,0,1084146688,974,59,257,1870,99820,0,0,65344,8194,-1392510048,-1,0,
18:11:58.514: 0,0:0:0:3445,1,-19,-924,85,350,-5530,140,-1063229619,0,1084145664,982,-75,235,1871,99824,0,0,65344,8194,-1392510048,-1,0,
18:11:58.623: 0,0:0:0:3445,1,-19,-875,182,-70,-3780,-5110,-1063227941,0,1084146688,985,-18,269,1871,99824,0,0,65344,8194,-1392510048,-1,0,
18:11:58.841: 0,0:0:0:3445,1,-68,-875,85,2520,-7280,1890,-1063227941,0,1084146688,989,48,203,1872,99817,0,0,65344,8194,-1392510048,-1,0,
18:11:58.950: 0,0:0:0:3445,1,29,-875,85,350,-700,-1190,-1063229375,0,1084147712,981,-60,197,1872,99817,0,0,65344,8194,-1392510048,-1,0,
18:11:59.060: 8,0:0:0:3445,1,-19,-826,134,2100,-210,-1610,-1063229375,0,1084147712,979,122,246,1873,99821,0,0,65344,8194,-1392510048,-1,0,
18:11:59.276: 8,0:0:0:3445,1,-117,-924,36,2100,-5530,2800,-1063227697,0,1084148736,989,6,285,1873,99810,0,0,65344,8194,-1392510048,-1,0,
18:11:59.386: 0,0:0:0:3445,1,29,-875,85,3850,-6440,1890,-1063230811,0,1084148736,984,-74,238,1873,99821,0,0,65344,8194,-1392510048,-1,0,
18:11:59.497: 0,0:0:0:3445,1,-68,-875,134,2100,-5110,-2030,-1063227697,0,1084148736,982,32,240,1873,99821,0,0,65344,8194,-1392510048,-1,0,
18:11:59.714: 32,0:0:0:3445,1,-117,-875,134,-15400,-6860,1470,-1063227697,0,1084148736,980,-5,258,1873,99814,0,0,65344,8194,-1392510048,-1,0,
18:11:59.822: 0,0:0:0:3445,1,-19,-924,134,2100,-3290,560,-1063229679,0,1084148736,991,-37,211,1873,99814,0,0,65344,8194,-1392510048,-1,0,
18:12:00.035: 32,0:0:0:3445,1,-117,-924,182,5180,-5110,-280,-1063229679,0,1084148736,989,-4,261,1874,99818,0,0,65344,8194,-1392510048,-1,0,
18:12:00.145: 0,0:0:0:3445,1,-19,-875,182,2100,-3780,2310,-1063228000,0,1084149760,986,-3,199,1874,99807,0,0,65344,8194,-1392510048,-1,0,
18:12:00.255: 8,0:0:0:3445,1,-19,-875,134,-560,-4620,560,-1063231116,0,1084149760,985,-23,219,1874,99818,0,0,65344,8194,-1392510048,-1,0,
18:12:00.470: 8,0:0:0:3445,1,-68,-924,134,2100,-4200,-1610,-1063228000,0,1084149760,987,9,261,1874,99807,0,0,65344,8194,-1392510048,-1,0,
18:12:00.581: 32,0:0:0:3445,1,-68,-924,231,770,-5110,1890,-1063231116,0,1084149760,989,-40,229,1874,99807,0,0,65344,8194,-1392510048,-1,0,
18:12:00.795: 0,0:0:0:3445,1,-68,-826,85,8260,-5110,-280,-1063231116,0,1084149760,987,-17,264,1874,99818,0,0,65344,8194,-1392510048,-1,0,
18:12:00.901: 0,0:0:0:3445,1,-117,-875,36,770,-3780,1890,-1063228000,0,1084149760,980,-4,259,1875,99822,0,0,65344,8194,-1392510048,-1,0,
18:12:01.008: 0,0:0:0:3445,1,-19,-826,85,350,-5950,-2940,-1063226321,0,1084150784,976,-19,210,1875,99822,0,0,65344,8194,-1392510048,-1,0,
18:12:01.219: 32,0:0:0:3445,1,-117,-875,182,2940,-5950,1470,-1063226321,0,1084150784,976,9,271,1876,99827,0,0,65344,8194,-1392510048,-1,0,
18:12:01.330: 32,0:0:0:3445,1,-19,-924,36,2520,-7280,2800,-1063224357,0,1084151808,997,-20,242,1876,99815,0,0,65344,8194,-1392510048,-1,0,
18:12:01.543: 0,0:0:0:3445,1,-19,-826,182,2940,11480,1890,-1063227475,0,1084151808,987,-5,242,1877,99831,0,0,65344,8194,-1392510048,-1,0,
18:12:01.651: 0,0:0:0:3445,1,-19,-826,36,3430,-7770,2310,-1063222675,0,1084152832,988,-12,244,1877,99820,0,0,65344,8194,-1392510048,-1,0,
18:12:01.867: 8,0:0:0:3445,1,-19,-924,134,1680,-3780,1470,-1063225511,0,1084152832,989,-18,249,1877,99820,0,0,65344,8194,-1392510048,-1,0,
18:12:01.978: 0,0:0:0:3445,1,-68,-875,134,770,-4200,3220,-1063225795,0,1084152832,988,0,238,1878,99824,0,0,65344,8194,-1392510048,-1,0,
18:12:02.089: 0,0:0:0:3445,1,29,-924,134,3430,-3780,140,-1063224114,0,1084153856,976,-15,221,1878,99812,0,0,65344,8194,-1392510048,-1,0,
18:12:02.302: 32,0:0:0:3445,1,29,-875,231,2100,-4620,-350,-1063227519,0,1084153856,974,-21,265,1878,99824,0,0,65344,8194,-1392510048,-1,0,
18:12:02.413: 8,0:0:0:3445,1,-117,-924,182,-560,-4620,-280,-1063224114,0,1084153856,988,13,241,1879,99817,0,0,65344,8194,-1392510048,-1,0,
18:12:02.524: 0,0:0:0:3445,1,-19,-875,134,2520,-3780,140,-1063225554,0,1084154880,990,-34,241,1879,99828,0,0,65344,8194,-1392510048,-1,0,
18:12:02.736: 8,0:0:0:3445,1,-68,-972,85,3010,-5950,-1190,-1063222431,0,1084154880,985,-19,223,1879,99828,0,0,65344,8194,-1392510048,-1,0,
18:12:02.847: 0,0:0:0:3445,1,-68,-924,85,2520,-2450,2310,-1063222147,0,1084154880,984,18,221,1879,99817,0,0,65344,8194,-1392510048,-1,0,
18:12:03.063: 0,0:0:0:3445,1,-19,-875,85,1680,-630,5880,-1063225270,0,1084154880,980,-50,247,1879,99828,0,0,65344,8194,-1392510048,-1,0,
18:12:03.174: 0,0:0:0:3445,1,-68,-875,85,1190,-1540,140,-1063222431,0,1084154880,982,-10,264,1879,99817,0,0,65344,8194,-1392510048,-1,0,
18:12:03.286: 8,0:0:0:3445,1,-117,-826,134,3430,-5530,-770,-1063225270,0,1084154880,981,-6,243,1879,99828,0,0,65344,8194,-1392510048,-1,0,
18:12:03.503: 8,0:0:0:3445,1,-19,-826,182,-70,-4200,140,-1063222431,0,1084154880,991,-9,165,1879,99828,0,0,65344,8194,-1392510048,-1,0,
18:12:03.613: 32,0:0:0:3445,1,-19,-826,85,-12320,-2870,-4690,-1063222147,0,1084154880,974,-124,233,1878,99812,0,0,65344,8194,-1392510048,-1,0,
18:12:03.831: 8,0:0:0:3445,1,-68,-777,134,2520,-17710,1890,-1063227235,0,1084153856,971,-26,279,1878,99812,0,0,65344,8194,-1392510048,-1,0,
18:12:03.941: 32,0:0:0:3445,1,-19,-875,134,4760,-6860,14070,-1063227519,0,1084153856,982,-21,212,1878,99812,0,0,65344,8194,-1392510048,-1,0,
18:12:04.049: 32,0:0:0:3445,1,-68,-924,85,3430,1540,4550,-1063227519,0,1084153856,963,-75,352,1878,99824,0,0,65344,8194,-1392510048,-1,0,
18:12:04.263: 8,0:0:0:3445,1,-19,-924,85,2520,-2870,14560,-1063224114,0,1084153856,975,-22,275,1878,99835,0,0,65344,8194,-1392510048,-1,0,
18:12:04.369: 0,0:0:0:3445,1,-166,-875,134,4270,-12180,-2100,-1063220992,0,1084153856,961,39,304,1878,99824,0,0,65344,8194,-1392510048,-1,0,
